"Time (s)","Acceleration x (m/s^2)","Acceleration y (m/s^2)","Acceleration z (m/s^2)"
3.502158000E-2,2.422134638E0,1.730908036E0,1.503679657E1
5.469111200E-2,1.964507341E0,1.127318621E0,1.333131218E1
7.443189300E-2,2.180160522E0,8.303094506E-1,1.130219841E1
1.777938720E-1,3.576671600E0,2.986242771E0,5.589035511E0
1.974781950E-1,3.189931631E0,3.252145052E0,5.672784328E0
2.171911640E-1,3.019742250E0,3.329911709E0,6.349654198E0
2.368882990E-1,2.912065268E0,3.189632654E0,6.538686752E0
2.565930390E-1,2.957528830E0,2.807678223E0,6.383153439E0
2.763368930E-1,2.504687071E0,2.304587364E0,6.136393547E0
2.960069450E-1,1.392024517E0,1.689033628E0,6.044270039E0
3.157201220E-1,5.174478889E-2,1.213460207E0,6.457331181E0
3.354245490E-1,-1.119541883E0,1.341775298E0,7.257431030E0
3.551365280E-1,-1.616650820E0,2.373979092E0,9.777372360E0
3.748624660E-1,-2.572284341E-1,3.132204771E0,1.516152287E1
3.945471010E-1,3.203092098E0,3.054438114E0,2.116212273E1
4.142391320E-1,5.799902916E0,2.505883455E0,2.273361015E1
4.339521530E-1,3.958925009E0,2.363211393E0,1.773769569E1
4.536366850E-1,1.709372640E0,1.520040631E0,1.082183933E1
4.733423620E-1,4.854438901E-1,8.012964725E-1,5.890830040E0
4.930875700E-1,-8.464609832E-2,6.756733060E-1,3.620938778E0
5.127918930E-1,2.662015148E-2,6.445665956E-1,3.562314749E0
5.324857990E-1,1.254437327E0,-7.178467698E-3,4.454837322E0
5.521895490E-1,2.864208698E0,1.083051324E0,6.967600346E0
5.719086120E-1,3.008974552E0,1.996810555E0,8.134101868E0
5.916206950E-1,2.827120066E0,2.347658157E0,9.623035431E0
6.112821010E-1,1.878365755E0,1.962114573E0,1.020628548E1
6.309887680E-1,1.492822170E0,1.992024899E0,9.557232857E0
6.507075700E-1,1.218544960E0,1.795514345E0,8.634799957E0
6.704007470E-1,6.891329288E-1,1.672283888E0,7.736593723E0
6.901046530E-1,2.111666054E-1,1.781157374E0,7.410871029E0
7.098420490E-1,-1.097707376E-1,2.253141642E0,7.413263798E0
7.295417890E-1,-1.842473447E-1,2.509472847E0,7.983353615E0
7.492220490E-1,-5.745765567E-1,2.553740025E0,9.147461891E0
7.689397570E-1,-1.113559842E0,2.176571369E0,1.111406326E1
7.886251740E-1,-1.205982566E0,1.543968797E0,1.260778236E1
8.083317370E-1,-1.485045552E0,1.006181955E0,1.259342575E1
8.280348620E-1,-1.447657704E0,8.410771489E-1,1.164347458E1
8.477518930E-1,-1.092024446E0,7.055835724E-1,1.052483082E1
8.674464760E-1,-7.244270444E-1,7.486543655E-1,1.027567768E1
8.871688200E-1,2.841476798E-1,1.329512119E0,1.025653553E1
9.068585070E-1,6.951149702E-1,1.607677698E0,1.008903790E1
9.265876220E-1,4.663013220E-1,1.782353759E0,9.679266930E0
9.462681950E-1,1.331007630E-1,1.895115495E0,9.262616158E0
9.659731950E-1,-1.854437590E-1,1.970489502E0,8.855237961E0
9.856877780E-1,2.781656384E-2,1.954936147E0,8.988339424E0
1.005401372E0,-2.979064286E-1,1.528415442E0,9.049356461E0
1.025122414E0,-2.033899277E-1,1.744068623E0,8.993124962E0
1.044792518E0,-2.464607358E-1,1.242174029E0,8.961718559E0
1.064496216E0,-5.913262963E-1,9.655039310E-1,9.186943054E0
1.084203716E0,-4.848456979E-1,4.528416991E-1,9.254241943E0
1.103918351E0,-6.813562512E-1,1.666002721E-1,9.691230774E0
1.123626997E0,-7.375875711E-1,1.247258782E-1,9.990633011E0
1.143318872E0,5.772684515E-2,9.774680734E-1,8.913862228E0
1.163021476E0,-1.253240854E-1,1.138086319E0,7.837092400E0
1.182725435E0,-7.866404206E-2,1.718943954E0,8.033602715E0
1.202432935E0,-3.170489967E-1,1.848156333E0,8.505587578E0
1.222146268E0,2.817548811E-1,2.378764868E0,9.512965202E0
1.241841216E0,2.075773627E-1,2.174178362E0,1.066869926E1
1.261550955E0,-2.799602449E-1,1.903490424E0,1.165932751E1
1.281252101E0,-1.770688742E-1,1.672283888E0,1.213699436E1
1.300954914E0,-4.154538214E-1,1.142871857E0,1.160279655E1
1.320666893E0,-3.840480447E-1,9.798609018E-1,1.065194893E1
1.340383507E0,-5.745765567E-1,4.971089065E-1,9.212067604E0
1.360074705E0,-1.555334777E-1,7.953144312E-1,8.390432358E0
1.379774810E0,5.967101455E-1,1.504487276E0,8.635995865E0
1.399480539E0,7.657032609E-1,1.875972986E0,8.722436905E0
1.419187414E0,1.163210869E0,2.440080881E0,9.096015930E0
1.438909393E0,8.685946465E-1,2.192124605E0,9.510273933E0
1.458596268E0,4.878367186E-1,2.212463617E0,9.476774216E0
1.478337257E0,5.413761362E-2,1.715354681E0,8.867202759E0
1.498006164E0,-2.273181528E-1,1.756032705E0,8.770293236E0
1.517715955E0,-2.859423161E-1,1.628016710E0,9.222835541E0
1.537428664E0,-2.524427772E-1,1.494915962E0,1.026371384E1
1.557133299E0,-2.931207716E-1,1.083051324E0,1.117777157E1
1.576838872E0,-3.038884699E-1,7.989036441E-1,1.154297638E1
1.596537518E0,-1.710868180E-1,7.187440991E-1,1.088913727E1
1.616237101E0,2.338984162E-1,9.236295223E-1,9.672088623E0
1.635947518E0,9.176474810E-1,1.502094388E0,9.590732574E0
1.655631268E0,1.374078393E0,1.839781523E0,9.426525116E0
1.675337414E0,1.166800141E0,1.716551185E0,8.681459427E0
1.695059393E0,1.050748229E0,1.753639936E0,8.877969742E0
1.714769237E0,8.889335990E-1,1.582253933E0,9.388239861E0
1.734471164E0,4.316053987E-1,1.287637711E0,9.560821533E0
1.754173924E0,1.091725305E-1,1.073480010E0,9.639784813E0
1.773879341E0,1.525424421E-1,1.019342422E0,9.899705887E0
1.793602049E0,3.463610709E-1,1.084247708E0,1.014048290E1
1.813292518E0,2.542374097E-2,1.100997567E0,1.036092186E1
1.833000591E0,-1.710868180E-1,1.134497046E0,1.041595650E1
1.852697257E0,1.139581800E-1,1.291226864E0,9.533304214E0
1.872408195E0,4.040879309E-1,1.653141379E0,9.167800903E0
1.892136632E0,7.824530005E-1,1.867298961E0,8.919844627E0
1.911828351E0,1.054337502E0,1.818246126E0,8.419146538E0
1.931545122E0,1.039980531E0,1.671087503E0,8.570193291E0
1.951222987E0,1.133300662E0,1.462612867E0,8.903095245E0
1.970917987E0,1.508375525E0,1.569093466E0,9.767801285E0
1.990628455E0,1.480858088E0,1.591825247E0,1.097647572E1
2.010347830E0,1.252044439E0,1.171585798E0,1.076560783E1
2.030037830E0,4.758726060E-1,6.984050870E-1,9.886545181E0
2.049757622E0,1.019940674E-1,4.289134443E-1,9.090034485E0
2.069461424E0,4.435695112E-1,8.985049129E-1,9.043374062E0
2.089145539E0,1.084247708E0,1.588235974E0,9.590732574E0
2.108878091E0,1.037587762E0,1.842174292E0,1.004835987E1
2.128567570E0,9.825528264E-1,1.920240164E0,1.024816036E1
2.148287414E0,9.236295223E-1,1.935793519E0,1.026730251E1
2.168011893E0,6.302096844E-1,1.852941990E0,1.005314541E1
2.187682830E0,3.451646566E-1,1.673480392E0,9.572786331E0
2.207384289E0,1.657029688E-1,1.350150228E0,9.254241943E0
2.227066789E0,1.585244983E-1,1.073480010E0,8.814560890E0
2.246829289E0,-5.593222752E-2,8.087740541E-1,8.549854279E0
2.266500643E0,-3.278166950E-1,6.828517914E-1,9.183354378E0
2.286193039E0,-1.336989701E-1,8.662018180E-1,1.022064304E1
2.305911268E0,3.379862010E-1,1.191924810E0,1.088076305E1
2.325638143E0,3.894318938E-1,1.311565876E0,1.044706345E1
2.345308403E0,4.423730969E-1,1.287637711E0,9.130712509E0
2.365043403E0,7.357929349E-1,1.487737536E0,8.610871315E0
2.384736372E0,1.193121195E0,1.877169371E0,9.088837624E0
2.404441060E0,1.141675472E0,1.909472466E0,9.875777245E0
2.424147466E0,6.903293133E-1,1.636391640E0,1.052602673E1
2.443864341E0,4.926223755E-1,1.183549881E0,9.544072151E0
2.463572362E0,1.453639716E-1,1.034895778E0,8.395217896E0
2.483282310E0,-2.721835673E-2,1.091426253E0,7.976175308E0
2.502959341E0,3.439682424E-1,1.279262781E0,8.175078392E0
2.522677257E0,5.991029739E-1,1.549950838E0,9.322437286E0
2.542375018E0,5.273182988E-1,1.412363529E0,1.009262657E1
2.562085539E0,2.937189937E-1,1.148854017E0,1.020149994E1
2.581790539E0,9.361918271E-2,9.894321561E-1,1.000379372E1
2.601471685E0,2.614158690E-1,1.089033365E0,9.760622978E0
2.621177935E0,2.697907388E-1,1.331904888E0,9.868598938E0
2.640904289E0,1.944168359E-1,1.382453322E0,9.554840088E0
2.660593039E0,9.122636169E-2,1.353739381E0,9.154640198E0
2.680341893E0,3.260220960E-2,1.364507079E0,9.237193108E0
2.700046216E0,-1.423729509E-1,1.299601793E0,9.428917885E0
2.719748403E0,-2.344966233E-1,1.338186026E0,1.037647533E1
2.739421685E0,-1.639083475E-1,1.278066397E0,1.084816074E1
2.759158143E0,2.195414752E-1,1.245763302E0,1.020030403E1
2.778838195E0,4.435695112E-1,1.284048438E0,8.974879265E0
2.798555070E0,5.285146832E-1,1.395613790E0,8.407182693E0
2.818249757E0,7.477570772E-1,1.643570065E0,9.015856743E0
2.837955955E0,6.879364848E-1,1.484148264E0,9.304491043E0
2.857647153E0,3.966103494E-1,1.172782183E0,9.573982239E0
2.877389810E0,2.279163599E-1,8.709874153E-1,9.870991707E0
2.897072466E0,-1.145563871E-1,6.469594240E-1,9.494720459E0
2.916770539E0,-1.495514214E-1,7.630113363E-1,9.305686951E0
2.936469914E0,2.602194548E-1,1.323530078E0,9.618249893E0
2.956208820E0,6.469594240E-1,1.907079697E0,9.422935486E0
2.975882101E0,7.968099117E-1,2.326122761E0,8.924630165E0
2.995595747E0,6.421737671E-1,2.446063042E0,8.468498230E0
3.015280226E0,2.255235314E-1,2.281855583E0,8.421539307E0
3.034993247E0,8.524430543E-2,1.903490424E0,9.171390533E0
3.054709966E0,-2.362912335E-2,1.474576950E0,1.085324574E1
3.074414185E0,-2.679961324E-1,7.211369276E-1,1.219232845E1
3.094139445E0,-4.489533603E-1,4.097708687E-2,1.204128170E1
3.113833507E0,-4.513461590E-1,-2.730808854E-1,1.062802124E1
3.133527622E0,-2.177468538E-1,-1.543370634E-1,9.530911446E0
3.153231060E0,1.441675574E-1,1.965105534E-1,9.030213356E0
3.172930747E0,6.098706722E-1,7.402794957E-1,8.989535332E0
3.192634185E0,1.043569803E0,1.303191066E0,9.757033348E0
3.212374132E0,1.105783105E0,1.563111424E0,1.023141098E1
3.232047049E0,1.028016448E0,1.674676776E0,1.017876816E1
3.251763455E0,8.279166222E-1,1.758425593E0,9.571589470E0
3.271460851E0,3.260220885E-1,1.729711652E0,8.437092781E0
3.291169810E0,1.489532143E-1,1.932204247E0,7.547261715E0
3.310868664E0,1.405783296E-1,2.036292076E0,7.179664135E0
3.330573091E0,-1.025922745E-1,2.024327993E0,7.560422421E0
3.350285382E0,-2.596212626E-1,1.890329838E0,8.995517731E0
3.369977830E0,-2.392822653E-1,1.744068623E0,1.078833961E1
3.389693195E0,-6.909275055E-2,1.526022673E0,1.238495064E1
3.409390487E0,1.680957973E-1,1.196710467E0,1.257188988E1
3.429099757E0,3.702892959E-1,8.291130662E-1,1.166770267E1
3.448811737E0,6.182455420E-1,6.290132403E-1,1.042193890E1
3.468523924E0,1.140479088E0,6.098706722E-1,9.516554832E0
3.488217205E0,1.431506157E0,8.183453679E-1,9.179764748E0
3.507919601E0,1.540678620E0,1.136889815E0,9.093623161E0
3.527627205E0,1.445863128E0,1.492523074E0,9.188139915E0
3.547335278E0,9.068797827E-1,1.861316919E0,1.053679466E1
3.567039810E0,4.543372095E-1,1.999203324E0,1.150229836E1
3.586740539E0,-6.789634377E-2,1.801496387E0,1.147717381E1
3.606444757E0,-3.816552162E-1,1.485344648E0,1.038126087E1
3.626146060E0,-4.585246444E-1,1.091426253E0,8.723632812E0
3.645849497E0,-2.512463629E-1,9.320043921E-1,7.743772507E0
3.665556893E0,3.595215976E-1,1.010967612E0,7.420442104E0
3.685258455E0,7.561319470E-1,1.188335538E0,8.221738815E0
3.704950747E0,1.118943691E0,1.389631748E0,9.780064583E0
3.724684132E0,1.359721422E0,1.419542074E0,1.095015430E1
3.744387726E0,1.026820064E0,1.288834095E0,1.101356411E1
3.764080799E0,6.481558084E-1,1.262513041E0,1.014287567E1
3.783792101E0,5.404788256E-1,1.342971683E0,9.352347374E0
3.803491580E0,5.835496187E-1,1.520040631E0,9.479166985E0
3.823181060E0,5.644070506E-1,1.396810174E0,9.959526062E0
3.842920591E0,3.212364316E-1,1.008574724E0,9.372686386E0
3.862605539E0,3.224328458E-1,9.176474810E-1,9.274580956E0
3.882321007E0,3.367897868E-1,9.786644578E-1,9.876974106E0
3.902053924E0,4.842474759E-1,1.135693431E0,9.930811882E0
3.921703768E0,6.146563292E-1,1.425524116E0,9.600303650E0
3.941434185E0,6.939185858E-1,1.703390598E0,9.336793900E0
3.961164393E0,6.026921868E-1,1.998006940E0,9.651749611E0
3.980852153E0,4.148556292E-1,2.039881229E0,1.020867825E1
4.000545018E0,1.609173268E-1,1.862513304E0,1.020628548E1
4.020251632E0,1.175474152E-1,1.663909078E0,9.796813965E0
4.039956268E0,2.691925503E-3,1.380060434E0,9.522537231E0
4.059653247E0,3.200400174E-1,1.233799219E0,9.826724052E0
4.079358612E0,6.541379094E-1,1.105783105E0,1.030080223E1
4.099098664E0,6.891329288E-1,8.997012973E-1,1.076800060E1
4.118773247E0,8.733802438E-1,7.582256794E-1,1.081825066E1
4.138506060E0,8.195417523E-1,6.361917257E-1,1.016201878E1
4.158171737E0,5.021936297E-1,6.278168559E-1,9.371489525E0
4.177895903E0,5.775675774E-1,9.200403094E-1,9.042177200E0
4.197604601E0,7.058826685E-1,1.305583835E0,8.900702477E0
4.217301372E0,1.016052365E0,1.673480392E0,9.212067604E0
4.237000643E0,1.114158034E0,1.741675735E0,9.670891762E0
4.256719862E0,8.494520187E-1,1.594218135E0,9.633803368E0
4.276445591E0,7.429714203E-1,1.515254974E0,1.011416245E1
4.296126216E0,7.094719410E-1,1.342971683E0,1.034177971E1
4.315823820E0,6.314060688E-1,1.154836059E0,1.015484047E1
4.335531320E0,4.902295470E-1,9.966106415E-1,9.679266930E0
4.355228455E0,2.961117923E-1,9.332008362E-1,8.529515266E0
4.374947726E0,1.369891018E-1,1.284048438E0,8.134101868E0
4.394645695E0,1.055833027E-1,1.628016710E0,8.619246483E0
4.414347310E0,2.805584669E-1,1.834995866E0,9.437292099E0
4.434059810E0,4.064807594E-1,1.892722726E0,1.049611664E1
4.453754966E0,4.028915167E-1,1.819442511E0,1.075842953E1
4.473475174E0,4.447658956E-1,1.842174292E0,1.083739281E1
4.493182674E0,2.925225794E-1,1.776371717E0,1.129143143E1
4.512877205E0,1.019940674E-1,1.384846091E0,1.121486092E1
4.532577882E0,-3.200400248E-2,9.212366939E-1,1.049491978E1
4.552294393E0,-2.321037948E-1,6.326025128E-1,9.897313118E0
4.571991164E0,-2.602194622E-2,5.895316601E-1,9.713962555E0
4.591681476E0,3.367897868E-1,8.099704385E-1,1.066391277E1
4.611399237E0,5.368895531E-1,9.810572863E-1,1.112154007E1
4.631099289E0,9.729815125E-1,1.118943691E0,1.024696350E1
4.650808195E0,9.382855892E-1,1.154836059E0,8.758329391E0
4.670517987E0,1.047158957E0,1.403988719E0,7.940282822E0
4.690221320E0,1.110568762E0,1.639980793E0,8.310273170E0
4.709943195E0,9.885348678E-1,1.602592945E0,8.940183640E0
4.729629705E0,9.080761671E-1,1.476969719E0,9.742676735E0
4.749346528E0,5.165506005E-1,1.280459166E0,9.843474388E0
4.769041164E0,3.260220960E-2,1.217049360E0,9.621838570E0
4.788773247E0,-1.423729509E-1,1.224227905E0,9.456435204E0
4.808478039E0,-9.062815458E-2,1.311565876E0,9.072088242E0
4.828186216E0,1.908276081E-1,1.455434322E0,9.241978645E0
4.847882153E0,3.762713671E-1,1.560718536E0,1.001815033E1
4.867567622E0,4.603192508E-1,1.510469317E0,1.035135078E1
4.887269601E0,5.297111273E-1,1.499701619E0,1.125314617E1
4.907001685E0,4.627120793E-1,1.414756417E0,1.157288647E1
4.926683872E0,4.208376706E-1,1.281655669E0,1.083858967E1
4.946398507E0,2.769692242E-1,1.380060434E0,1.029242706E1
4.966089393E0,1.812563092E-1,1.380060434E0,9.209674835E0
4.985795851E0,1.561316848E-1,1.599003673E0,9.079266548E0
5.005503143E0,-4.037888348E-2,1.693819284E0,9.273384094E0
5.025207987E0,4.336991161E-2,1.834995866E0,9.615857124E0
5.044890851E0,1.585244946E-2,1.751247048E0,1.029601669E1
5.064615174E0,-5.473581702E-2,1.395613790E0,1.026730251E1
5.084326216E0,-4.516452923E-2,1.027717352E0,1.018594646E1
5.104051424E0,-1.001994461E-1,8.650053740E-1,1.044706345E1
5.123735018E0,3.332005441E-1,7.977072597E-1,1.001934624E1
5.143438612E0,6.026921868E-1,9.128618240E-1,9.645767212E0
5.163132778E0,7.549355626E-1,1.127318621E0,9.662516594E0
5.182846268E0,7.070791125E-1,1.331904888E0,9.391828537E0
5.202549862E0,7.034898400E-1,1.566700578E0,9.155837059E0
5.222266112E0,6.517450809E-1,1.742872238E0,8.578568459E0
5.241966164E0,5.632106066E-1,1.904686809E0,8.434700012E0
5.261672049E0,4.052843451E-1,1.712961912E0,8.522336960E0
5.281386632E0,1.824527234E-1,1.382453322E0,8.917451859E0
5.301078299E0,-2.093719784E-3,1.145264745E0,9.922437668E0
5.320788195E0,-1.495514214E-1,9.607182741E-1,1.093101215E1
5.340479028E0,-3.918246925E-2,9.260223508E-1,1.179332542E1
5.360201737E0,-1.166501082E-2,9.487541914E-1,1.171914768E1
5.379874757E0,-1.121635586E-1,1.154836059E0,1.083739281E1
5.399632101E0,4.217349738E-2,1.396810174E0,9.751050949E0
5.419311685E0,1.633101404E-1,1.639980793E0,8.376075745E0
5.439008664E0,3.894318938E-1,1.946561217E0,8.343772888E0
5.458718768E0,4.040879309E-1,1.848156333E0,9.021839142E0
5.478423924E0,4.316053987E-1,1.419542074E0,9.408578873E0
5.498140851E0,3.786641955E-1,1.043270707E0,1.026969528E1
5.517833247E0,2.853440940E-1,7.175477147E-1,1.054756260E1
5.537544445E0,5.141577721E-1,8.075776696E-1,1.098126125E1
5.557236372E0,6.062814593E-1,9.296116233E-1,1.107458115E1
5.576928612E0,5.069792867E-1,1.014556766E0,1.018235779E1
5.596629445E0,5.440680385E-1,1.280459166E0,9.685248375E0
5.616357101E0,5.979065299E-1,1.564307809E0,9.239585876E0
5.636052674E0,6.723831892E-1,1.887937069E0,8.917451859E0
5.655767101E0,7.046862841E-1,2.026720762E0,8.848059654E0
5.675462414E0,6.326025128E-1,1.887937069E0,8.255238533E0
5.695168768E0,4.567300081E-1,1.783550143E0,8.591729164E0
5.714892414E0,2.853440940E-1,1.660319805E0,9.352347374E0
5.734588039E0,2.817548811E-1,1.543968797E0,9.583553314E0
5.754296060E0,9.840483218E-2,1.423131227E0,1.035135078E1
5.773997153E0,-2.033899277E-1,1.214656591E0,1.098963642E1
5.793702674E0,-3.972085714E-1,1.066002488E0,1.132373428E1
5.813406268E0,-5.195416212E-1,9.475577474E-1,1.151545906E1
5.833112830E0,-3.936193287E-1,8.482556343E-1,1.031276608E1
5.852843507E0,1.908276081E-1,9.762716293E-1,8.854042053E0
5.872523872E0,6.493522525E-1,1.209870934E0,8.269595146E0
5.892228091E0,1.038784146E0,1.383649707E0,8.245666504E0
5.911932570E0,1.338186026E0,1.503290772E0,9.034998894E0
5.931647622E0,1.415952802E0,1.512862086E0,1.039083195E1
5.951351216E0,1.329811215E0,1.274477124E0,1.051167011E1
5.971038976E0,6.735795736E-1,1.015753269E0,9.749855042E0
5.990746112E0,4.244269133E-1,9.595218897E-1,8.559425354E0
6.010454549E0,2.171486616E-1,1.176371455E0,8.472087860E0
6.030163820E0,9.601201117E-2,1.455434322E0,8.371290207E0
6.049869289E0,2.781656384E-2,1.565504193E0,8.791828156E0
6.069584445E0,1.103689447E-1,1.666301847E0,9.751050949E0
6.089296528E0,-1.686939895E-1,1.403988719E0,1.072971630E1
6.108989497E0,-2.009970993E-1,1.093819022E0,1.087119102E1
6.128685226E0,-4.755735025E-2,8.697910309E-1,1.038245773E1
6.148408091E0,7.567301393E-2,1.130907774E0,9.706784248E0
6.168084341E0,6.711867452E-1,1.455434322E0,9.639784813E0
6.187798976E0,8.374879360E-1,1.753639936E0,9.868598938E0
6.207519862E0,5.321039557E-1,1.594218135E0,1.018475056E1
6.227221372E0,4.244269133E-1,1.509272933E0,9.668498993E0
6.246923768E0,1.680957973E-1,1.387238979E0,8.807381630E0
6.266628664E0,3.631108403E-1,1.449452281E0,7.967800140E0
6.286332778E0,6.397809386E-1,1.613659739E0,8.002495766E0
6.306027726E0,8.315058947E-1,1.680658817E0,8.782257080E0
6.325732153E0,8.961120844E-1,1.546361685E0,9.626625061E0
6.345438612E0,8.327022791E-1,1.365703583E0,1.097527885E1
6.365143560E0,6.699903607E-1,1.275673628E0,1.179452229E1
6.384865226E0,3.822534084E-1,9.020941257E-1,1.104945660E1
6.404555643E0,2.039881349E-1,8.398807645E-1,9.787242889E0
6.424264601E0,5.273182988E-1,1.169192910E0,8.983553886E0
6.443969705E0,7.668996453E-1,1.571486235E0,8.852845192E0
6.463674185E0,9.861420393E-1,1.842174292E0,8.965308189E0
6.483373039E0,8.937192559E-1,1.872084618E0,9.491130829E0
6.503062362E0,7.896314859E-1,1.551147223E0,9.761818886E0
6.522758299E0,4.351946115E-1,1.108175993E0,9.996614456E0
6.542494132E0,5.237290859E-1,8.362914920E-1,9.772586823E0
6.562190955E0,7.154539824E-1,9.511470199E-1,1.005314541E1
6.581897622E0,9.813563824E-1,1.237388372E0,1.036211872E1
6.601624393E0,1.080658555E0,1.389631748E0,1.023499966E1
6.621292153E0,7.920243144E-1,1.421934843E0,9.897313118E0
6.641019341E0,5.500500798E-1,1.378864050E0,9.562018394E0
6.660727257E0,2.386840582E-1,1.316351533E0,9.184550285E0
6.680422778E0,3.451646566E-1,1.214656591E0,8.674281120E0
6.700123143E0,7.549355626E-1,1.357328653E0,8.201399803E0
6.719835018E0,9.296116233E-1,1.500898004E0,8.076673508E0
6.739549757E0,9.897312522E-1,1.571486235E0,8.580961227E0
6.759252049E0,1.067497969E0,1.567897081E0,9.593125343E0
6.778947153E0,9.981061220E-1,1.344168067E0,1.038843918E1
6.798655122E0,2.673979402E-1,9.236295223E-1,1.037647533E1
6.818388716E0,-7.866404206E-2,6.517450809E-1,1.019432163E1
6.838048924E0,-1.543370634E-1,6.541379094E-1,1.012493038E1
6.857772778E0,8.763712645E-2,9.798609018E-1,1.002532864E1
6.877472570E0,3.583251834E-1,1.296012521E0,9.623035431E0
6.897180955E0,7.537391186E-1,1.553540111E0,8.753543854E0
6.916907726E0,1.086640596E0,1.824228168E0,8.197810173E0
6.936589185E0,8.219345808E-1,1.916650891E0,8.542675972E0
6.956288195E0,7.944171429E-1,1.883151412E0,9.298508644E0
6.976000278E0,8.386843204E-1,1.863709688E0,1.039202881E1
6.995714810E0,6.601199508E-1,1.629213095E0,1.104467106E1
7.015402622E0,6.987041831E-1,1.608874083E0,1.132971573E1
7.035117987E0,6.302096844E-1,1.523629785E0,1.121725368E1
7.054825643E0,3.678964674E-1,1.305583835E0,9.799206734E0
7.074507674E0,2.697907388E-1,1.220638633E0,8.327022552E0
7.094239341E0,-6.879365072E-3,1.304387450E0,7.718647480E0
7.113930747E0,3.140579760E-1,1.479362607E0,7.706683636E0
7.133650174E0,5.799604058E-1,1.593021631E0,8.995517731E0
7.153347362E0,6.302096844E-1,1.444666624E0,1.063160992E1
7.173027674E0,5.895316601E-1,1.095015407E0,1.117059326E1
7.192741112E0,8.147560954E-1,1.123729348E0,1.074766159E1
7.212459549E0,1.000499010E0,1.451845169E0,9.446864128E0
7.232179497E0,1.172782183E0,1.756032705E0,8.009675026E0
7.251867518E0,1.175175071E0,2.097309113E0,7.468298435E0
7.271575955E0,1.012463093E0,2.172981977E0,7.008278370E0
7.291290851E0,7.010970116E-1,2.255534410E0,6.898208618E0
7.310985226E0,4.423730969E-1,2.189731836E0,7.528119087E0
7.330690330E0,2.817548811E-1,2.008774519E0,8.131709099E0
7.350398768E0,1.752742529E-1,1.777568102E0,9.700801849E0
7.370085226E0,1.968096644E-1,1.199103236E0,1.131176949E1
7.389805903E0,1.680957973E-1,5.763711333E-1,1.257787228E1
7.409521685E0,3.906283081E-1,1.824527234E-2,1.318864059E1
7.429213924E0,4.710869491E-1,-2.910270393E-1,1.236700439E1
7.448916424E0,9.993025661E-1,-1.435693651E-1,1.112871933E1
7.468623351E0,1.100997567E0,2.063809521E-2,9.501898766E0
7.488339341E0,1.095015407E0,3.918247223E-1,7.579565048E0
7.508058455E0,1.399203062E0,1.197906852E0,7.171289444E0
7.527725747E0,1.297508121E0,1.657927036E0,7.125825882E0
7.547449601E0,1.146461129E0,2.070987940E0,6.577271461E0
7.567170278E0,1.102193952E0,2.429313183E0,7.128218651E0
7.586851789E0,4.962115884E-1,2.222034931E0,8.692227364E0
7.606555747E0,2.991028305E-4,1.952543259E0,9.906884193E0
7.626268247E0,-4.058825374E-1,1.668694735E0,9.826724052E0
7.645961789E0,-6.897311211E-1,1.199103236E0,9.063713074E0
7.665670070E0,-6.116653085E-1,9.451649189E-1,8.119744301E0
7.685367674E0,-2.045863420E-1,8.075776696E-1,8.040781021E0
7.705080851E0,3.499503136E-1,8.338986635E-1,7.979764462E0
7.724778612E0,7.668996453E-1,1.055234790E0,8.736793518E0
7.744475330E0,1.358525038E0,1.386042476E0,1.016082191E1
7.764202570E0,1.859223247E0,1.521237016E0,1.109133148E1
7.783908455E0,1.896311998E0,1.546361685E0,1.176820087E1
7.803632674E0,1.435095429E0,1.315155149E0,1.108774185E1
7.823305122E0,1.158425212E0,1.207478166E0,9.274580956E0
7.843026632E0,1.080658555E0,1.512862086E0,8.912666321E0
7.862734549E0,9.765707254E-1,1.972882271E0,9.830313683E0
7.882455382E0,9.044869542E-1,2.278266191E0,1.049970531E1
7.902130591E0,4.447658956E-1,2.275873423E0,1.059811020E1
7.921839705E0,5.054837838E-2,2.129612207E0,1.014646530E1
7.941547622E0,-3.601198196E-1,1.989632010E0,1.023260689E1
7.961256112E0,-4.585246444E-1,1.671087503E0,9.727123260E0
7.980957830E0,-1.351944804E-1,1.450648785E0,8.996713638E0
8.000651007E0,2.087737769E-1,1.413560033E0,8.723632812E0
8.020370591E0,6.747759581E-1,1.481755376E0,8.561818123E0
8.040061372E0,1.153639674E0,1.521237016E0,9.448060036E0
8.059763455E0,1.466202021E0,1.388435364E0,1.057388306E1
8.079467257E0,1.532303810E0,1.193121195E0,1.050568771E1
8.099187414E0,1.421934843E0,1.058824062E0,9.835099220E0
8.118887153E0,1.341775298E0,9.607182741E-1,8.974879265E0
8.138591841E0,1.401595831E0,1.122532964E0,9.014659882E0
8.158303247E0,1.482054472E0,1.278066397E0,9.384650230E0
8.177994601E0,1.369292736E0,1.260120273E0,8.924630165E0
8.197684757E0,1.303490162E0,1.394417405E0,8.776275635E0
8.217409862E0,1.085444212E0,1.442273855E0,9.000303268E0
8.237107778E0,1.066301584E0,1.527219057E0,9.553643227E0
8.256822414E0,9.921240807E-1,1.560718536E0,1.064716339E1
8.276523872E0,6.771687865E-1,1.322333574E0,1.103509998E1
8.296227466E0,5.273182988E-1,1.328315616E0,1.072492981E1
8.315912414E0,5.129613280E-1,1.327119231E0,9.656535149E0
8.335630539E0,3.571287692E-1,1.347757339E0,8.524729729E0
8.355349810E0,2.446661144E-1,1.473380566E0,8.405985832E0
8.375046945E0,4.746761918E-1,1.613659739E0,8.807381630E0
8.394757882E0,6.493522525E-1,1.741675735E0,9.706784248E0
8.414466841E0,7.609176040E-1,1.770389676E0,1.052841949E1
8.434169914E0,8.733802438E-1,1.629213095E0,1.083380318E1
8.453883716E0,9.945169091E-1,1.536790371E0,1.061725330E1
8.473569341E0,1.097408295E0,1.491326690E0,1.036092186E1
8.493278664E0,1.139282703E0,1.427916884E0,1.010578728E1
8.512996580E0,1.099801064E0,1.291226864E0,9.315258980E0
8.532699549E0,1.031605721E0,1.266102314E0,8.335397720E0
8.552394132E0,1.061515927E0,1.547558069E0,8.227720261E0
8.572090070E0,8.279166222E-1,1.711765528E0,8.938986778E0
8.591807726E0,7.238288522E-1,1.740479350E0,9.700801849E0
8.611476164E0,4.950151742E-1,1.565504193E0,9.966704369E0
8.631224810E0,2.709871531E-1,1.321137190E0,9.660123825E0
8.650917622E0,1.824527234E-2,1.090229869E0,9.384650230E0
8.670624185E0,8.883354068E-2,1.060020447E0,9.778569221E0
8.690321216E0,4.088735580E-1,1.176371455E0,1.050209904E1
8.710031685E0,6.337988973E-1,1.382453322E0,1.084457111E1
8.729729185E0,9.574281573E-1,1.623231053E0,1.094536877E1
8.749434185E0,9.813563824E-1,1.776371717E0,1.043031406E1
8.769146528E0,6.074778438E-1,1.711765528E0,9.457631111E0
8.788859341E0,1.920240223E-1,1.537986755E0,9.125926018E0
8.808558403E0,1.271187067E-1,1.331904888E0,8.831310272E0
8.828264601E0,4.016951025E-1,1.223031521E0,8.966505051E0
8.847981789E0,8.470591903E-1,1.298405409E0,9.954740524E0
8.867671997E0,1.181157112E0,1.252941728E0,1.064357376E1
8.887377882E0,1.435095429E0,1.389631748E0,1.055713367E1
8.907088039E0,1.478465319E0,1.560718536E0,9.443274498E0
8.926816789E0,1.389631748E0,1.788335800E0,8.457730293E0
8.946494601E0,1.097408295E0,1.968096614E0,8.573782921E0
8.966189914E0,7.633104324E-1,1.789532185E0,9.139086723E0
8.985926007E0,3.738785386E-1,1.626820326E0,9.942776680E0
9.005624341E0,-4.157529399E-2,1.362114310E0,1.008784103E1
9.025312362E0,-8.464609832E-2,1.338186026E0,9.861420631E0
9.045005799E0,2.147558331E-1,1.469791293E0,9.721140862E0
9.064725487E0,3.212364316E-1,1.436291814E0,1.052841949E1
9.084420435E0,6.481558084E-1,1.325922847E0,1.132373428E1
9.104155487E0,8.003991842E-1,1.254138112E0,1.135484028E1
9.123850487E0,9.490532875E-1,1.370489120E0,1.056670475E1
9.143556528E0,1.049551845E0,1.641177177E0,1.013928699E1
9.163253872E0,8.757730722E-1,1.729711652E0,9.916455269E0
9.182970018E0,5.835496187E-1,1.569093466E0,9.885348320E0
9.202655747E0,3.607180119E-1,1.257727385E0,9.462417603E0
9.222336945E0,3.056831062E-1,1.098604679E0,8.355736732E0
9.242064810E0,4.363910258E-1,1.290030479E0,8.156833649E0
9.261773247E0,4.962115884E-1,1.516451359E0,9.078069687E0
9.281470278E0,9.741778970E-1,1.787139416E0,1.079312611E1
9.301176632E0,1.045962572E0,1.650748491E0,1.132851982E1
9.320902049E0,9.176474810E-1,1.589432478E0,1.040758228E1
9.340592726E0,7.824530005E-1,1.596610904E0,9.464810371E0
9.360289862E0,7.226324677E-1,1.553540111E0,8.338987350E0
9.380003612E0,6.553342938E-1,1.578664780E0,8.142476082E0
9.399711841E0,4.196412563E-1,1.536790371E0,9.099605560E0
9.419414132E0,4.866403043E-1,1.472184181E0,9.669695854E0
9.439116372E0,5.847460628E-1,1.614856124E0,1.019192886E1
9.458821685E0,3.152543902E-1,1.566700578E0,1.129023457E1
9.478514757E0,6.969095767E-2,1.413560033E0,1.183400345E1
9.498234237E0,1.477568001E-1,1.276870012E0,1.100877857E1
9.517938716E0,2.518445849E-1,1.362114310E0,9.776176453E0
9.537640487E0,4.363910258E-1,1.555932879E0,8.990732193E0
9.557346060E0,4.495515525E-1,1.696212173E0,8.681459427E0
9.577022726E0,5.201398134E-1,1.812264085E0,9.320044518E0
9.596722153E0,2.638086975E-1,1.657927036E0,1.008784103E1
9.616466476E0,1.728814393E-1,1.466202021E0,9.618249893E0
9.636176789E0,4.782654345E-1,1.661516190E0,9.739087105E0
9.655849393E0,5.548357368E-1,1.611266971E0,1.021226788E1
9.675570018E0,5.823532343E-1,1.412363529E0,1.042074299E1
9.695275435E0,7.824530005E-1,1.095015407E0,1.022542858E1
9.714979914E0,8.087740541E-1,9.882357717E-1,9.615857124E0
9.734692362E0,9.116654396E-1,1.126122117E0,8.804988861E0
9.754409757E0,1.022034407E0,1.449452281E0,8.268398285E0
9.774099914E0,1.042373419E0,1.790728688E0,8.282755852E0
9.793794601E0,8.901300430E-1,2.067398787E0,9.309276581E0
9.813494549E0,4.890331328E-1,2.124826431E0,1.014287567E1
9.833197726E0,3.523431420E-1,2.057827473E0,9.740283966E0
9.852919080E0,-1.375873089E-1,1.837388635E0,9.115159035E0
9.872626372E0,-4.118646085E-1,1.850549221E0,9.879366875E0
9.892331997E0,-1.830509305E-1,1.660319805E0,1.086520958E1
9.912032882E0,-2.237289101E-1,1.252941728E0,1.112393379E1
9.931744862E0,1.621137410E-1,9.882357717E-1,1.108534908E1
9.951440226E0,4.519443810E-1,8.542376757E-1,9.780064583E0
9.971140278E0,7.872386575E-1,1.018146038E0,8.460124016E0
9.990854445E0,8.255237937E-1,1.232602715E0,9.075676918E0
1.001057090E1,7.764709592E-1,1.276870012E0,1.007228756E1
1.003025929E1,1.013659477E0,1.193121195E0,9.749855042E0
1.004995950E1,8.003991842E-1,1.156032443E0,9.086444855E0
1.006967491E1,5.823532343E-1,1.360917926E0,9.015856743E0
1.008936794E1,3.906283081E-1,1.498505235E0,8.657531738E0
1.010908585E1,3.619144261E-1,1.762014747E0,8.668298721E0
1.012877392E1,3.439682424E-1,1.947757602E0,9.402596474E0
1.014848924E1,1.645065546E-1,1.851745605E0,9.321240425E0
1.016819116E1,-6.909275055E-2,1.754836321E0,9.445667267E0
1.018789325E1,-1.579262912E-1,1.610070586E0,1.008305550E1
1.020760512E1,-1.734796464E-1,1.358525038E0,1.007468033E1
1.022729288E1,3.595215976E-1,1.365703583E0,9.541679382E0
1.024700765E1,8.063812256E-1,1.288834095E0,8.722436905E0
1.026670953E1,9.693922997E-1,1.517647743E0,9.034998894E0
1.028642500E1,9.753743410E-1,1.590628862E0,9.892526627E0
1.030612088E1,9.044869542E-1,1.396810174E0,1.088913727E1
1.032581208E1,7.860422134E-1,1.249352574E0,1.149870968E1
1.034555453E1,4.471587241E-1,1.099801064E0,1.097169018E1
1.036523682E1,3.511467278E-1,1.348953724E0,9.679266930E0
1.038495739E1,3.056831062E-1,1.631605983E0,8.968897820E0
1.040465218E1,-3.320041299E-2,1.720140338E0,8.628817558E0
1.042436250E1,-2.189432681E-1,1.604985833E0,8.146065712E0
1.044407286E1,-4.875376076E-2,1.420738459E0,7.792825222E0
1.046377026E1,-1.121635586E-1,1.377667665E0,8.420342445E0
1.048346932E1,2.183450572E-2,1.645962834E0,1.041356373E1
1.050317307E1,6.433702111E-1,1.629213095E0,1.260778236E1
1.052287672E1,9.248259664E-1,1.529611826E0,1.242443275E1
1.054259046E1,7.992027402E-1,1.383649707E0,1.017158985E1
1.056227494E1,5.536393523E-1,1.352542996E0,7.734200954E0
1.058197750E1,4.890331328E-1,1.534397483E0,6.419045925E0
1.060169500E1,1.680957973E-1,1.662712693E0,7.857431412E0
1.062140880E1,-1.169492081E-1,1.517647743E0,9.630213737E0
1.064111244E1,-3.625126183E-1,1.323530078E0,1.023858929E1
1.066080307E1,-4.166502357E-1,1.301994562E0,1.097886848E1
1.068051343E1,-3.290131222E-3,1.607677698E0,1.102433205E1
1.070023041E1,3.176472187E-1,1.844567180E0,1.000857925E1
1.071993083E1,4.363910258E-1,1.836192250E0,8.755936623E0
1.073963234E1,5.572285652E-1,1.875972986E0,8.212167740E0
1.075933708E1,7.190431952E-1,1.910668850E0,8.316255569E0
1.077904218E1,5.703890920E-1,1.813460469E0,9.660123825E0
1.079873817E1,2.147558331E-1,1.482951880E0,1.117298603E1
1.081846729E1,1.824527234E-2,1.086640596E0,1.119212914E1
1.083817552E1,5.892325938E-2,1.064806104E0,9.979865074E0
1.085789177E1,2.446661144E-1,1.335494161E0,8.733204842E0
1.087757489E1,4.280161560E-1,1.683051586E0,8.576175690E0
1.089723198E1,5.775675774E-1,1.751247048E0,8.820542336E0
1.091697359E1,7.142575383E-1,1.710569143E0,8.766703606E0
1.093667869E1,7.776673436E-1,1.845763564E0,9.233603477E0
1.095641458E1,8.913264275E-1,1.960918188E0,9.743872643E0
1.097609067E1,7.082754970E-1,1.836192250E0,1.042433167E1
1.099580281E1,2.482553422E-1,1.409970760E0,1.033699417E1
1.101549968E1,-2.841476910E-2,9.391828775E-1,9.033802986E0
1.103521396E1,-6.789634377E-2,7.845467329E-1,8.475676537E0
1.105490661E1,9.361918271E-2,7.713862062E-1,8.816953659E0
1.107460932E1,1.043868884E-1,8.697910309E-1,9.759426117E0
1.109434666E1,3.702892959E-1,1.055234790E0,1.059332466E1
1.111403942E1,4.148556292E-1,1.182353497E0,9.831509590E0
1.113373880E1,5.177469850E-1,1.648355722E0,8.855237961E0
1.115345666E1,7.501499057E-1,2.164607286E0,8.640781403E0
1.117316432E1,7.082754970E-1,2.505883455E0,8.603693008E0
1.119284140E1,2.291127741E-1,2.344068766E0,8.368897438E0
1.121255052E1,-1.277169138E-1,2.139183521E0,9.437292099E0
1.123225739E1,-3.002992272E-1,1.660319805E0,1.056909752E1
1.125196041E1,-3.134597540E-1,9.487541914E-1,1.078714371E1
1.127166755E1,-2.273181528E-1,5.006981492E-1,1.010818005E1
1.129137109E1,2.374876440E-1,4.827519655E-1,9.575179100E0
1.131107463E1,1.122532964E0,8.542376757E-1,8.776275635E0
1.133077885E1,1.970489502E0,1.567897081E0,8.533104897E0
1.135047520E1,2.286940336E0,2.199303150E0,8.592925072E0
1.137018599E1,1.810170293E0,2.290230274E0,8.718847275E0
1.138992364E1,8.374879360E-1,1.983649969E0,9.291330338E0
1.140960328E1,3.260220960E-2,1.484148264E0,9.880562782E0
1.142929869E1,-4.764707983E-1,9.547362328E-1,9.800403595E0
1.144900479E1,-7.651050687E-1,6.481558084E-1,9.916455269E0
1.146871859E1,-6.825526357E-1,5.907281041E-1,1.032861900E1
1.148842744E1,-3.062812984E-1,7.785646915E-1,1.117059326E1
1.150815281E1,1.091725305E-1,1.055234790E0,1.178495026E1
1.152782536E1,4.674977362E-1,1.352542996E0,1.121844959E1
1.154756229E1,8.015955687E-1,1.736890078E0,9.801599503E0
1.156726130E1,9.068797827E-1,2.158625126E0,8.970093727E0
1.158691562E1,6.939185858E-1,2.420938253E0,8.837292671E0
1.160661526E1,2.602194548E-1,2.145464659E0,8.647959709E0
1.162634984E1,-4.636093974E-2,1.783550143E0,7.995317936E0
1.164605312E1,4.935196787E-2,1.671087503E0,7.761718273E0
1.166579046E1,8.165507019E-2,1.685444474E0,8.622835159E0
1.168547062E1,4.579264224E-1,1.826620936E0,1.054277611E1
1.170517213E1,1.127318621E0,1.721336842E0,1.252523041E1
1.172487281E1,1.132104158E0,1.511665702E0,1.287847042E1
1.174457781E1,1.010070205E0,1.315155149E0,1.094895840E1
1.176429953E1,8.039883971E-1,1.084247708E0,8.864809990E0
1.178398885E1,6.278168559E-1,1.083051324E0,8.199007034E0
1.180366953E1,5.344967842E-1,1.090229869E0,8.653942108E0
1.182340328E1,5.739783049E-1,1.152443171E0,9.674481392E0
1.184311838E1,6.421737671E-1,1.375274777E0,1.030798054E1
1.186284151E1,4.184448719E-1,1.533201098E0,1.052722359E1
1.188251599E1,3.667000830E-1,1.790728688E0,1.077159023E1
1.190225442E1,3.559323549E-1,1.772782445E0,1.036451149E1
1.192191708E1,3.774677813E-1,1.600200176E0,9.949954987E0
1.194163244E1,6.026921868E-1,1.466202021E0,9.712766647E0
1.196133078E1,6.014958024E-1,1.448255897E0,9.290133476E0
1.198103953E1,4.830510616E-1,1.566700578E0,8.930612564E0
1.200074422E1,6.098706722E-1,1.801496387E0,9.007481575E0
1.202046635E1,8.721838593E-1,1.951346874E0,9.091230392E0
1.204015515E1,1.025623560E0,1.994417667E0,9.788438797E0
1.205985703E1,6.601199508E-1,1.656730533E0,1.014885807E1
1.207956182E1,6.891329288E-1,1.534397483E0,1.056311512E1
1.209928380E1,7.477570772E-1,1.360917926E0,1.050329494E1
1.211897708E1,8.530412912E-1,1.315155149E0,9.501898766E0
1.213869776E1,1.001695395E0,1.462612867E0,9.166604042E0
1.215838864E1,9.355936646E-1,1.543968797E0,9.085248947E0
1.217809343E1,8.805587292E-1,1.600200176E0,9.582357407E0
1.219779036E1,4.423730969E-1,1.500898004E0,1.066032410E1
1.221749713E1,3.702892959E-1,1.264905930E0,1.100399303E1
1.223721974E1,6.218347549E-1,1.231406331E0,1.127707386E1
1.225692453E1,7.633104324E-1,1.220638633E0,1.077876854E1
1.227663963E1,9.681958556E-1,1.296012521E0,9.303294182E0
1.229634948E1,1.090229869E0,1.462612867E0,8.009675026E0
1.231605088E1,1.152443171E0,1.632802367E0,7.196413994E0
1.233573515E1,1.154836059E0,1.813460469E0,7.420442104E0
1.235549604E1,9.116654396E-1,1.972882271E0,8.677870750E0
1.237513234E1,6.927221417E-1,1.925025821E0,1.084935665E1
1.239484067E1,3.284149170E-1,1.515254974E0,1.313240910E1
1.241454796E1,1.633101404E-1,1.052842021E0,1.314915848E1
1.243425833E1,3.870390654E-1,8.530412912E-1,1.059332466E1
1.245394968E1,7.573283911E-1,1.225424290E0,8.068299294E0
1.247366026E1,1.522732496E0,1.911865234E0,6.204588890E0
1.249336135E1,1.650748491E0,2.389532566E0,6.592824459E0
1.251306838E1,1.196710467E0,2.281855583E0,7.419245720E0
1.253277776E1,7.884350419E-1,2.097309113E0,8.146065712E0
1.255248479E1,4.172484577E-1,1.789532185E0,8.988339424E0
1.257218906E1,-2.632105052E-1,1.448255897E0,1.019671440E1
1.259192562E1,-7.136593461E-1,1.046859860E0,1.164347458E1
1.261160854E1,-8.069794178E-1,7.043871880E-1,1.243759346E1
1.263130651E1,-4.250251353E-1,4.253242314E-1,1.092144108E1
1.265100843E1,1.211366430E-1,5.919244885E-1,8.500801086E0
1.267070041E1,6.397809386E-1,1.117747307E0,7.072884560E0
1.269042828E1,9.658030272E-1,1.628016710E0,6.968796730E0
1.271012442E1,1.001695395E0,1.895115495E0,7.896913052E0
1.272983057E1,8.458628058E-1,1.801496387E0,9.112766266E0
1.274953317E1,3.667000830E-1,1.512862086E0,1.013569736E1
1.276924036E1,3.499503061E-2,1.328315616E0,1.103390312E1
1.278894843E1,-3.026920557E-1,1.185942769E0,1.108056355E1
1.280862849E1,-2.237289101E-1,1.072283626E0,1.012971592E1
1.282833229E1,1.223330572E-1,1.212263823E0,9.251849174E0
1.284808078E1,3.427718580E-1,1.374078393E0,9.139086723E0
1.286774817E1,6.242275834E-1,1.317547917E0,9.161818504E0
1.288746297E1,7.381857634E-1,1.282852054E0,9.396614075E0
1.290719630E1,8.554341197E-1,1.203888893E0,9.541679382E0
1.292687557E1,1.072283626E0,1.227817178E0,9.256634712E0
1.294657442E1,1.496411443E0,1.455434322E0,9.100801468E0
1.296631531E1,1.531107426E0,1.690230131E0,9.343972206E0
1.298601927E1,1.339382529E0,1.712961912E0,9.667302132E0
1.300572234E1,1.262812138E0,1.727318883E0,1.009023380E1
1.302541776E1,1.071087241E0,1.445863128E0,1.000857925E1
1.304509531E1,7.645068169E-1,1.153639674E0,9.619445801E0
1.306481661E1,8.231309652E-1,1.157228827E0,1.005434132E1
1.308451599E1,9.957132936E-1,1.184746265E0,1.004955578E1
1.310423411E1,1.179960608E0,1.445863128E0,9.681659698E0
1.312391083E1,1.051944613E0,1.764407635E0,9.541679382E0
1.314362796E1,9.056833982E-1,2.024327993E0,1.001934624E1
1.316333958E1,4.304089844E-1,1.838585138E0,1.049611664E1
1.318303531E1,-1.734796464E-1,1.419542074E0,1.072014427E1
1.320274724E1,-3.553341627E-1,9.894321561E-1,1.068664455E1
1.322243963E1,-9.780662507E-2,7.079764009E-1,9.759426117E0
1.324214677E1,3.104687333E-1,7.761718631E-1,8.564210892E0
1.326186172E1,7.896314859E-1,1.138086319E0,8.238488197E0
1.328155994E1,1.417149186E0,1.571486235E0,8.813364029E0
1.330126760E1,1.299900889E0,1.699801445E0,9.985847473E0
1.332097317E1,1.154836059E0,1.578664780E0,1.046740246E1
1.334067323E1,8.087740541E-1,1.374078393E0,9.746265411E0
1.336040073E1,5.464608669E-1,1.304387450E0,8.652746201E0
1.338008953E1,5.356931686E-1,1.536790371E0,8.292326927E0
1.339979968E1,7.812566161E-1,1.813460469E0,8.736793518E0
1.341951359E1,8.398807645E-1,1.618445396E0,9.427721024E0
1.343920380E1,6.493522525E-1,1.123729348E0,9.731908798E0
1.345890630E1,4.196412563E-1,8.012964725E-1,1.012134075E1
1.347862765E1,3.008974493E-1,5.464608669E-1,1.016680431E1
1.349830958E1,2.243271172E-1,6.696912646E-1,9.946365356E0
1.351801802E1,4.663013220E-1,1.136889815E0,9.576375008E0
1.353774239E1,6.672984362E-1,1.674676776E0,9.226425171E0
1.355743567E1,5.895316601E-1,2.037488461E0,9.227621078E0
1.357711406E1,2.614158690E-1,2.137987137E0,9.532108307E0
1.359681359E1,6.729813665E-2,2.117648125E0,9.805189133E0
1.361654026E1,9.870393202E-3,1.910668850E0,9.688838005E0
1.363625718E1,-3.080759197E-2,1.516451359E0,9.244669914E0
1.365596010E1,1.872383654E-1,1.242174029E0,8.832506180E0
1.367566130E1,4.722833633E-1,1.090229869E0,8.979964256E0
1.369536916E1,6.735795736E-1,9.643075466E-1,9.251849174E0
1.371508906E1,9.188438654E-1,8.721838593E-1,9.632606506E0
1.373477744E1,1.075872898E0,9.858429432E-1,9.988240242E0
1.375448619E1,9.032905698E-1,1.224227905E0,1.063160992E1
1.377417765E1,6.062814593E-1,1.442273855E0,1.158604717E1
1.379388890E1,3.655036688E-1,1.341775298E0,1.106501007E1
1.381360474E1,1.680957973E-1,1.055234790E0,9.057730675E0
1.383331140E1,-2.476571500E-1,6.661019921E-1,7.643273830E0
1.385302031E1,-3.086741269E-1,3.439682424E-1,7.365108013E0
1.387270864E1,-3.002992272E-1,4.815555736E-2,7.886145115E0
1.389241817E1,-1.387837082E-1,-1.531406492E-1,9.036195755E0
1.391211687E1,1.585244983E-1,-1.794617027E-1,1.026610661E1
1.393183338E1,2.398804724E-1,-2.886342406E-1,1.101356411E1
1.395152203E1,2.805584669E-1,-3.209373355E-1,1.090110207E1
1.397122833E1,4.651049078E-1,-3.209373355E-1,1.040159988E1
1.399093213E1,6.110670567E-1,-2.694916427E-1,9.801599503E0
1.401064682E1,7.369893789E-1,-1.064806059E-1,9.128319740E0
1.403034578E1,8.602197170E-1,7.447660714E-2,8.362915039E0
1.405005796E1,9.272187948E-1,3.044866920E-1,8.331808090E0
1.406975198E1,6.951149702E-1,4.097708762E-1,8.871988297E0
1.408948802E1,4.244269133E-1,3.583251834E-1,9.701998711E0
1.410916750E1,3.930211067E-1,2.455634177E-1,1.080030441E1
1.412886520E1,1.992024779E-1,1.824527234E-2,1.096570778E1
1.414856666E1,2.279163599E-1,-2.392822644E-3,1.062084198E1
1.416828109E1,2.781656384E-1,1.570289880E-1,1.059811020E1
1.418798807E1,2.973082066E-1,2.805584669E-1,1.001695347E1
1.420768880E1,2.709871531E-1,5.102694035E-1,9.455238342E0
1.422742109E1,2.590230405E-1,6.337988973E-1,9.051749229E0
1.424710593E1,3.176472187E-1,8.075776696E-1,9.361918449E0
1.426682161E1,3.619144112E-2,6.900302172E-1,9.401400566E0
1.428651317E1,-2.751746178E-1,4.695914388E-1,9.605089188E0
1.430621630E1,-2.560320199E-1,3.200400174E-1,9.885348320E0
1.432591854E1,-1.166501082E-2,2.623131871E-1,9.970293999E0
1.434562656E1,9.840483218E-2,2.647060156E-1,1.089033413E1
1.436534000E1,1.283151209E-1,8.763712645E-2,1.141974640E1
1.438501614E1,4.052843451E-1,-1.914258115E-2,1.071296597E1
1.440474541E1,4.423730969E-1,1.585244946E-2,9.250652313E0
1.442445114E1,5.057829022E-1,2.132603228E-1,8.179863930E0
1.444417640E1,5.380859971E-1,5.356931686E-1,8.370093346E0
1.446386380E1,4.040879309E-1,6.924230456E-1,9.433703423E0
1.448356588E1,2.745763958E-1,7.247261405E-1,1.022901726E1
1.450326672E1,-2.482553571E-2,7.175477147E-1,1.069860935E1
1.452297317E1,-1.435693651E-1,7.989036441E-1,1.080987549E1
1.454268250E1,-1.313061416E-1,9.475577474E-1,1.016201878E1
1.456238015E1,-1.986042857E-1,1.073480010E0,9.348757744E0
1.458208572E1,-1.399801224E-1,1.220638633E0,9.251849174E0
1.460181114E1,-9.780662507E-2,1.425524116E0,9.327222824E0
1.462147760E1,-1.471585929E-1,1.570289850E0,9.255437851E0
1.464121271E1,-8.075776510E-3,1.778764486E0,9.491130829E0
1.466090974E1,-8.703892678E-2,1.891526341E0,9.679266930E0
1.468063182E1,-1.890329868E-1,1.769193292E0,9.418149948E0
1.470030640E1,-3.278166950E-1,1.549950838E0,9.029017448E0
1.472002328E1,-4.872384965E-1,1.260120273E0,9.480362892E0
1.473972838E1,-3.553341627E-1,1.085444212E0,1.020269680E1
1.475944187E1,-1.950150430E-1,9.008977413E-1,1.016919708E1
1.477914140E1,-1.169492081E-1,9.942178130E-1,9.631410599E0
1.479886807E1,1.127617657E-1,1.215852976E0,8.837292671E0
1.481853505E1,3.571287692E-1,1.595414519E0,8.506783485E0
1.483826989E1,3.690928817E-1,1.790728688E0,8.754739761E0
1.485795416E1,2.973082066E-1,1.795514345E0,9.800403595E0
1.487765760E1,6.729813665E-2,1.408774376E0,1.069741249E1
1.489736182E1,-2.763710022E-1,9.762716293E-1,1.180768204E1
1.491707323E1,-4.082753658E-1,5.102694035E-1,1.286052418E1
1.493675479E1,-4.477569461E-1,-3.230310604E-2,1.243161106E1
1.495647609E1,-1.351944804E-1,-2.333002090E-1,1.039681435E1
1.497618088E1,8.045866340E-2,-1.902294010E-1,8.584549904E0
1.499588828E1,4.124628007E-1,3.044866920E-1,7.485048294E0
1.501559224E1,7.621139884E-1,9.738788009E-1,7.320840836E0
1.503530000E1,7.022934556E-1,1.384846091E0,7.474280834E0
1.505501463E1,5.321039557E-1,1.799103498E0,7.450352192E0
1.507469922E1,4.256233275E-1,2.281855583E0,7.736593723E0
1.509441604E1,2.243271172E-1,2.625524759E0,8.572586060E0
1.511412630E1,-2.404786795E-1,2.588435888E0,9.222835541E0
1.513382047E1,-5.518447161E-1,2.143071890E0,9.826724052E0
1.515353406E1,-8.739784956E-1,1.622034669E0,1.035852909E1
1.517321198E1,-8.787640929E-1,1.093819022E0,1.118136120E1
1.519293083E1,-1.068096161E0,6.254240274E-1,1.233709431E1
1.521264614E1,-1.038185954E0,-5.982056726E-3,1.308096313E1
1.523235479E1,-8.727820516E-1,-3.711866140E-1,1.146520996E1
1.525204974E1,-5.650052428E-1,-4.381856322E-1,8.962915421E0
1.527175078E1,-4.486542661E-3,-5.264209956E-2,7.543672562E0
1.529146312E1,5.153541565E-1,4.181457460E-1,7.754539967E0
1.531116432E1,6.735795736E-1,8.386843204E-1,8.675477982E0
1.533086968E1,7.238288522E-1,1.162014484E0,9.595518112E0
1.535058651E1,6.014958024E-1,1.486541033E0,1.049013424E1
1.537029505E1,3.690928817E-1,1.651944876E0,1.077757263E1
1.538997646E1,5.533402413E-2,1.575075507E0,1.032144070E1
1.540969562E1,-2.488535494E-1,1.317547917E0,8.689834595E0
1.542939724E1,-4.082753658E-1,1.273280740E0,7.579565048E0
1.544910078E1,-2.931207716E-1,1.321137190E0,7.301698208E0
1.546879948E1,-2.811566591E-1,1.437488198E0,8.384450912E0
1.548849922E1,-2.428714931E-1,1.494915962E0,1.034895802E1
1.550821411E1,-1.974078715E-1,1.281655669E0,1.149990559E1
1.552791505E1,-4.034897089E-1,1.054038405E0,1.168804169E1
1.554762354E1,-4.968098104E-1,8.949156404E-1,1.123639584E1
1.556732916E1,-5.889334679E-1,8.087740541E-1,9.963115692E0
1.558702046E1,-6.849454641E-1,7.881359458E-1,9.600303650E0
1.560672281E1,-5.877370834E-1,7.905287743E-1,9.999007225E0
1.562642437E1,-4.310071766E-1,8.001000881E-1,1.010459137E1
1.564616244E1,-3.505485058E-1,9.439685345E-1,9.268598557E0
1.566585812E1,-9.780662507E-2,1.322333574E0,9.160622597E0
1.568556448E1,1.657029688E-1,1.781157374E0,9.521340370E0
1.570526567E1,4.375874400E-1,2.050648928E0,9.876974106E0
1.572498583E1,2.913261652E-1,1.950150490E0,9.588339806E0
1.574467672E1,4.217349738E-2,1.775175333E0,9.048159599E0
1.576438458E1,-3.218346536E-1,1.590628862E0,8.698209763E0
1.578408828E1,-4.357928336E-1,1.382453322E0,9.091230392E0
1.580379083E1,-4.896313250E-1,1.104586720E0,1.008544827E1
1.582349177E1,-4.848456979E-1,7.259225845E-1,1.090947628E1
1.584318062E1,-4.357928336E-1,5.234299302E-1,1.095493984E1
1.586286734E1,-8.943174779E-2,6.170491576E-1,1.098485088E1
1.588260489E1,9.122636169E-2,8.291130662E-1,1.078355408E1
1.590231994E1,4.495515525E-1,1.020538807E0,1.020748234E1
1.592202057E1,4.926223755E-1,1.141675472E0,9.474381447E0
1.594172724E1,4.722833633E-1,1.278066397E0,9.387042999E0
1.596142021E1,2.913261652E-1,1.339382529E0,9.279366493E0
1.598113250E1,5.294119939E-2,1.350150228E0,9.044570923E0
1.600083760E1,-1.890329868E-1,1.468594909E0,8.892327309E0
1.602053953E1,-2.416750938E-1,1.529611826E0,8.934201241E0
1.604023843E1,-2.895315289E-1,1.476969719E0,8.491230011E0
1.605996182E1,-2.536391914E-1,1.424327731E0,8.386843681E0
1.607966843E1,-3.122633696E-1,1.438684583E0,8.718847275E0
1.609936093E1,-1.770688742E-1,1.486541033E0,9.690034866E0
1.611906307E1,-1.842473447E-1,1.435095429E0,1.076919746E1
1.613879338E1,-8.344969153E-2,1.158425212E0,1.153699398E1
1.615847255E1,-2.021935135E-1,9.296116233E-1,1.173470116E1
1.617817385E1,-2.560320199E-1,6.684948206E-1,1.047936630E1
1.619789885E1,-3.002992272E-1,6.924230456E-1,8.942576408E0
1.621758953E1,2.781656384E-2,9.176474810E-1,8.400003433E0
1.623730349E1,3.248256743E-1,1.141675472E0,8.698209763E0
1.625700057E1,4.351946115E-1,1.090229869E0,8.682656288E0
1.627669781E1,3.140579760E-1,1.102193952E0,9.105587006E0
1.629642041E1,2.925225794E-1,1.212263823E0,9.970293999E0
1.631610927E1,1.860419661E-1,1.266102314E0,1.063639545E1
1.633580468E1,1.992024779E-1,1.188335538E0,1.114187908E1
1.635553354E1,1.247258782E-1,1.188335538E0,1.088195896E1
1.637522901E1,-2.093719784E-3,1.099801064E0,9.509077072E0
1.639492646E1,-1.782652885E-1,1.236191988E0,8.616853714E0
1.641464843E1,-1.627119333E-1,1.423131227E0,8.507980347E0
1.643434953E1,-2.967100143E-1,1.301994562E0,8.214560509E0
1.645405776E1,-2.213360965E-1,1.068395257E0,7.844270706E0
1.647375593E1,-2.189432681E-1,9.702895880E-1,8.904291153E0
1.649346229E1,-1.674975902E-1,8.207381964E-1,1.064955616E1
1.651316489E1,-1.363908947E-1,6.014958024E-1,1.155494022E1
1.653284755E1,-4.755735025E-2,5.775675774E-1,1.135484028E1
1.655257291E1,-4.755735025E-2,9.296116233E-1,1.029960632E1
1.657227994E1,1.980060786E-1,1.389631748E0,9.326025963E0
1.659198468E1,2.027917206E-1,1.715354681E0,9.292527199E0
1.661170088E1,3.140579537E-2,1.673480392E0,9.198907852E0
1.663139729E1,-3.433700502E-1,1.463809252E0,8.960522652E0
1.665110239E1,-4.537389874E-1,1.157228827E0,8.646763802E0
1.667079729E1,-4.214358926E-1,9.104689956E-1,9.227621078E0
1.669050807E1,-4.286143482E-1,6.637091637E-1,9.160622597E0
1.671021583E1,-2.560320199E-1,5.476573110E-1,9.221639633E0
1.672992640E1,3.738785535E-2,7.019943595E-1,9.733105659E0
1.674960646E1,2.147558331E-1,9.092726111E-1,1.024337482E1
1.676931744E1,2.554338276E-1,1.178764224E0,1.031276608E1
1.678902578E1,1.345962733E-1,1.396810174E0,1.004447079E1
1.680875229E1,2.183450572E-2,1.537986755E0,9.563215256E0
1.682846083E1,-1.205384433E-1,1.651944876E0,9.180961609E0
1.684816260E1,-1.567298770E-1,1.448255897E0,9.152247429E0
1.686783255E1,-3.828516304E-1,1.014556766E0,8.903095245E0
1.688756958E1,-1.046859939E-2,9.272187948E-1,9.160622597E0
1.690727364E1,3.008974493E-1,8.530412912E-1,9.184550285E0
1.692697646E1,6.242275834E-1,9.846464992E-1,9.196515083E0
1.694667187E1,8.985049129E-1,1.451845169E0,1.036211872E1
1.696637479E1,8.123632669E-1,1.504487276E0,1.060768223E1
1.698603672E1,5.512465239E-1,1.427916884E0,1.087119102E1
1.700578468E1,1.187438220E-1,9.774680734E-1,1.039920712E1
1.702547791E1,-1.686939895E-1,7.163512707E-1,9.107980728E0
1.704518474E1,7.926224917E-2,7.474579811E-1,8.405985832E0
1.706489734E1,9.840483218E-2,8.913264275E-1,8.692227364E0
1.708458625E1,3.978067636E-1,1.133300662E0,9.157032967E0
1.710432755E1,6.134598851E-1,1.375274777E0,1.011057281E1
1.712401901E1,7.441678643E-1,1.371685624E0,1.071535873E1
1.714372739E1,6.409773827E-1,1.322333574E0,1.048893833E1
1.716344916E1,6.086742878E-1,1.152443171E0,9.824331284E0
1.718313989E1,5.524429083E-1,9.834501147E-1,9.422935486E0
1.720281270E1,6.182455420E-1,7.462615371E-1,9.279366493E0
1.722253677E1,6.361917257E-1,6.098706722E-1,8.705388069E0
1.724225083E1,9.200403094E-1,6.876373887E-1,8.407182693E0
1.726194468E1,7.369893789E-1,9.188438654E-1,9.142676353E0
1.728164724E1,7.393822074E-1,1.258923769E0,1.044467068E1
1.730136140E1,8.650053740E-1,1.376471281E0,1.115503979E1
1.732107718E1,5.117649436E-1,1.267298698E0,1.113230801E1
1.734078718E1,8.165507019E-2,1.115354419E0,1.042672443E1
1.736047588E1,-1.645065658E-2,1.000199914E0,9.479166985E0
1.738017192E1,-2.333002090E-1,8.554341197E-1,9.282955170E0
1.739988119E1,-5.682953633E-3,7.654041648E-1,9.324830055E0
1.741957083E1,4.112663865E-1,8.829515576E-1,9.020642281E0
1.743929593E1,6.831508875E-1,9.714859724E-1,9.115159035E0
1.745899546E1,1.038784146E0,1.352542996E0,9.369096756E0
1.747867494E1,1.392024517E0,1.812264085E0,1.011894798E1
1.749839885E1,1.409970760E0,1.951346874E0,1.041715336E1
1.751810979E1,1.184746265E0,1.806282043E0,1.072732258E1
1.753782646E1,8.578268886E-1,1.413560033E0,9.904491425E0
1.755751838E1,3.774677813E-1,9.571290612E-1,9.163015366E0
1.757720135E1,5.772684515E-2,7.654041648E-1,9.023035049E0
1.759690172E1,2.697907388E-1,8.350951076E-1,8.955737114E0
1.761664026E1,6.385845542E-1,1.157228827E0,9.443274498E0
1.763631942E1,5.656034350E-1,1.383649707E0,1.029003429E1
1.765603724E1,7.561319470E-1,1.662712693E0,1.107099247E1
1.767574442E1,7.046862841E-1,1.636391640E0,1.155972576E1
1.769544661E1,4.830510616E-1,1.264905930E0,1.067707348E1
1.771516052E1,2.123630047E-1,9.942178130E-1,1.002532864E1
1.773487198E1,3.523431420E-1,8.410771489E-1,9.241978645E0
1.775455416E1,3.092723191E-1,6.385845542E-1,8.500801086E0
1.777427729E1,4.543372095E-1,7.701897621E-1,8.911469460E0
1.779397630E1,7.908278704E-1,1.009771109E0,9.227621078E0
1.781366828E1,1.039980531E0,1.368096352E0,9.615857124E0
1.783337078E1,8.099704385E-1,1.503290772E0,9.419346809E0
1.785308052E1,7.836494446E-1,1.784746647E0,9.276973724E0
1.787281146E1,5.333003402E-1,1.738086581E0,9.204889297E0
1.789249583E1,1.824527234E-1,1.460219979E0,9.521340370E0
1.791221182E1,9.870393202E-3,1.080658555E0,9.664909363E0
1.793192099E1,-1.878365725E-1,6.637091637E-1,1.018953609E1
1.795161567E1,-2.189432681E-1,4.109672904E-1,1.034776115E1
1.797132692E1,1.680957973E-1,3.559323549E-1,9.716355324E0
1.799103635E1,8.590233326E-1,6.577271223E-1,9.015856743E0
1.801072724E1,1.366899967E0,1.115354419E0,9.263813019E0
1.803043869E1,1.598106384E0,1.503290772E0,9.444471359E0
1.805013838E1,1.705783486E0,1.887937069E0,1.018834019E1
1.806984750E1,1.564606905E0,1.751247048E0,1.006510925E1
1.808953692E1,7.848458290E-1,1.376471281E0,9.019445419E0
1.810925364E1,4.722833633E-1,1.199103236E0,8.080263138E0
1.812895500E1,4.304089844E-1,1.245763302E0,9.287740707E0
1.814866406E1,2.243271172E-1,7.366902828E-1,1.052602673E1
1.816837255E1,2.769692242E-1,2.913261652E-1,1.088195896E1
1.818807885E1,6.951149702E-1,1.618146300E-1,1.092622662E1
1.820779244E1,8.135597110E-1,4.600201547E-1,1.023858929E1
1.822747718E1,1.339382529E0,1.166800141E0,1.044467068E1
1.824719614E1,1.793420553E0,1.647159338E0,1.011655521E1
1.826690833E1,1.668694735E0,1.631605983E0,8.868398666E0
1.828659385E1,1.419542074E0,1.769193292E0,8.073084831E0
1.830630672E1,6.843472719E-1,1.509272933E0,7.758129120E0
1.832601229E1,2.458625287E-1,1.366899967E0,8.876773834E0
1.834572422E1,-1.884347759E-2,1.000199914E0,1.075603676E1
1.836542338E1,1.525424421E-1,7.151548862E-1,1.117896843E1
1.838511797E1,3.451646566E-1,6.876373887E-1,1.065553856E1
1.840482385E1,8.662018180E-1,1.106979609E0,1.017637539E1
1.842451026E1,1.596910000E0,1.660319805E0,9.949954987E0
1.844423401E1,1.678265929E0,1.863709688E0,9.657731056E0
1.846394635E1,1.496411443E0,1.769193292E0,9.751050949E0
1.848366046E1,1.041176915E0,1.313958764E0,9.180961609E0
1.850335182E1,3.858426511E-1,8.961120844E-1,8.717651367E0
1.852305005E1,1.680957973E-1,6.433702111E-1,8.757132530E0
1.854276796E1,2.291127741E-1,6.074778438E-1,8.862417221E0
1.856247333E1,3.308077157E-1,6.326025128E-1,9.711569786E0
1.858217989E1,7.393822074E-1,9.415757060E-1,1.082901764E1
1.860189072E1,9.296116233E-1,1.115354419E0,1.132612705E1
1.862157927E1,1.007677436E0,1.334297776E0,1.096092224E1
1.864128776E1,8.374879360E-1,1.414756417E0,9.724730492E0
1.866096833E1,6.433702111E-1,1.516451359E0,8.530712128E0
1.868069380E1,3.942175210E-1,1.473380566E0,8.347361565E0
1.870039838E1,3.044866920E-1,1.354935765E0,8.821739197E0
1.872010307E1,-2.841476910E-2,1.086640596E0,9.234800339E0
1.873981906E1,-2.500499785E-1,9.260223508E-1,9.298508644E0
1.875952442E1,-1.531406492E-1,1.051645517E0,9.533304214E0
1.877923255E1,3.888336709E-3,1.425524116E0,1.055593681E1
1.879894635E1,6.170491576E-1,1.772782445E0,1.168564892E1
1.881862984E1,9.681958556E-1,1.673480392E0,1.212742329E1
1.883835489E1,1.127318621E0,1.415952802E0,1.054756260E1
1.885803791E1,8.494520187E-1,1.105783105E0,8.801400185E0
1.887775416E1,8.949156404E-1,1.045663476E0,8.233702660E0
1.889744682E1,9.008977413E-1,9.906286001E-1,8.276773453E0
1.891714963E1,1.140479088E0,1.165603757E0,8.567800522E0
1.893684677E1,1.043569803E0,1.401595831E0,8.940183640E0
1.895654552E1,6.684948206E-1,1.628016710E0,9.823135376E0
1.897627156E1,5.189434290E-1,1.732104540E0,1.085683441E1
1.899594906E1,1.824527234E-1,1.335494161E0,1.163151073E1
1.901567130E1,1.944168471E-2,8.063812256E-1,1.075962639E1
1.903538739E1,-1.884347759E-2,4.719842672E-1,9.662516594E0
1.905508635E1,2.769692242E-1,5.811567903E-1,8.873184204E0
1.907479244E1,5.333003402E-1,7.402794957E-1,8.727222443E0
1.909452104E1,7.884350419E-1,1.013360381E0,9.154640198E0
1.911420578E1,8.638089895E-1,1.099801064E0,8.837292671E0
1.913391187E1,5.488536954E-1,1.184746265E0,8.577371597E0
1.915359781E1,1.405783296E-1,1.345364571E0,8.760722160E0
1.917331578E1,-4.486542661E-3,1.209870934E0,8.839685440E0
1.919301494E1,3.020938672E-2,1.199103236E0,9.195318222E0
1.921273453E1,1.944168359E-1,1.126122117E0,9.335597992E0
1.923243416E1,1.259222925E-1,1.257727385E0,9.406186104E0
1.925213494E1,2.853440940E-1,1.243370414E0,1.027807045E1
1.927183796E1,6.038886309E-1,1.193121195E0,1.100877857E1
1.929154260E1,8.003991842E-1,1.114158034E0,1.037767220E1
1.931124786E1,8.039883971E-1,1.140479088E0,9.371489525E0
1.933095396E1,9.993025661E-1,1.413560033E0,9.389435768E0
1.935068135E1,1.047158957E0,1.384846091E0,9.142676353E0
1.937036250E1,8.398807645E-1,1.401595831E0,8.557032585E0
1.939006119E1,6.783652306E-1,1.475773335E0,8.923434258E0
1.940976385E1,5.309075117E-1,1.530808330E0,9.214461327E0
1.942947864E1,4.447658956E-1,1.579861164E0,1.012732315E1
1.944919380E1,3.822534084E-1,1.532004714E0,1.074526882E1
1.946889875E1,2.817548811E-1,1.220638633E0,9.747462273E0
1.948859474E1,2.350948304E-1,1.248156071E0,9.310472488E0
1.950829484E1,3.056831062E-1,1.472184181E0,9.882955551E0
1.952800067E1,3.990031779E-1,1.296012521E0,1.006271648E1
1.954771130E1,2.602194548E-1,9.188438654E-1,9.703194618E0
1.956740520E1,1.055833027E-1,5.078766346E-1,9.079266548E0
1.958710849E1,9.481559694E-2,4.456632137E-1,8.686244965E0
1.960681260E1,6.610172242E-2,5.294120312E-1,9.148657799E0
1.962653510E1,5.189434290E-1,8.638089895E-1,9.491130829E0
1.964622968E1,8.039883971E-1,1.167996526E0,8.826524734E0
1.966593672E1,9.442676306E-1,1.503290772E0,8.178668022E0
1.968564583E1,9.284151793E-1,1.854138494E0,8.191828728E0
1.970534161E1,6.122635007E-1,1.854138494E0,8.317451477E0
1.972504776E1,3.571287692E-1,1.545165181E0,8.256434441E0
1.974476979E1,3.499503061E-2,1.224227905E0,8.195417404E0
1.976446786E1,-3.218346536E-1,8.937192559E-1,8.771489143E0
1.978417536E1,-4.310071766E-1,6.696912646E-1,1.003729248E1
1.980387432E1,-1.639083475E-1,4.336991012E-1,1.112752247E1
1.982356572E1,1.489532143E-1,3.714857101E-1,1.149631596E1
1.984329364E1,5.560321808E-1,5.126622319E-1,1.095972633E1
1.986298401E1,1.067497969E0,7.007979155E-1,9.887741089E0
1.988269677E1,1.476072431E0,9.738788009E-1,8.267202377E0
1.990239088E1,1.667498231E0,1.330708504E0,7.101598740E0
1.992209484E1,1.696212173E0,1.789532185E0,6.867101669E0
1.994179744E1,1.362114310E0,2.051845312E0,7.640881062E0
1.996150401E1,9.212366939E-1,2.081755638E0,9.670891762E0
1.998120380E1,4.328017831E-1,1.795514345E0,1.090229797E1
2.000092744E1,-2.644068897E-1,1.218245864E0,1.078355408E1
2.002063135E1,-5.554339290E-1,1.096211910E0,1.090828037E1
2.004032593E1,-6.140581369E-1,9.978070259E-1,1.085085201E1
2.006003177E1,-3.756731451E-1,7.354938388E-1,1.062682438E1
2.007973713E1,1.055833027E-1,4.265206456E-1,1.110568810E1
2.009945656E1,2.015953064E-1,-4.307080805E-2,1.038724327E1
2.011915656E1,4.567300081E-1,-1.256231815E-1,1.000139999E1
2.013885260E1,6.122635007E-1,6.969095767E-2,9.838688850E0
2.015857687E1,7.465606928E-1,4.492524564E-1,8.602496147E0
2.017825020E1,1.144068360E0,9.104689956E-1,7.531708241E0
2.019798296E1,1.552642822E0,1.665105462E0,6.973582268E0
2.021764146E1,1.505982757E0,2.147857428E0,6.762714863E0
2.023737890E1,1.352542996E0,2.649452925E0,7.982157230E0
2.025706661E1,7.154539824E-1,2.414956331E0,8.628817558E0
2.027677198E1,-9.182456881E-2,1.863709688E0,8.766703606E0
2.029647864E1,-6.379863620E-1,1.306780219E0,9.167800903E0
2.031618286E1,-9.194421172E-1,6.912266612E-1,1.025174904E1
2.033589750E1,-6.753742099E-1,4.492524564E-1,1.201974678E1
2.035561239E1,-5.099703074E-1,2.491526604E-1,1.229880905E1
2.037529140E1,-7.866404206E-2,5.150550604E-1,1.219711399E1
2.039500312E1,3.906283081E-1,6.565307379E-1,1.116700459E1
2.041473890E1,4.076771438E-1,5.341976285E-1,9.112766266E0
2.043441322E1,5.416752100E-1,6.900302172E-1,7.522137165E0
2.045412073E1,5.105685592E-1,8.087740541E-1,6.604788780E0
2.047383494E1,7.728816867E-1,1.403988719E0,6.889833927E0
2.049353479E1,1.127318621E0,2.242373943E0,8.355736732E0
2.051326739E1,1.513161182E0,2.878266573E0,1.035135078E1
2.053294234E1,1.317847013E0,3.047259569E0,1.169282722E1
2.055264364E1,7.226324677E-1,2.387139797E0,1.152144146E1
2.057235979E1,2.410768867E-1,1.624427438E0,1.039322472E1
2.059206406E1,2.003988922E-1,7.654041648E-1,9.674481392E0
2.061179083E1,-3.074777126E-1,-1.734796464E-1,8.790632248E0
2.063147057E1,-4.597210586E-1,-8.551349640E-1,9.172586441E0
2.065116333E1,-8.973084623E-4,-1.125823021E0,9.466006279E0
2.067088135E1,5.572285652E-1,-8.407780528E-1,9.953543663E0
2.069058896E1,8.590233326E-1,-1.579262912E-1,1.027208805E1
2.071028036E1,9.562317729E-1,6.625127792E-1,9.768997192E0
2.072998380E1,1.466202021E0,1.473380566E0,9.125926018E0
2.074969260E1,1.730908036E0,2.156232357E0,8.573782921E0
2.076938474E1,9.502496719E-1,1.884347796E0,7.856235027E0
2.078911411E1,4.292125702E-1,2.271087885E0,8.443373680E0
2.080880276E1,-1.782652885E-1,1.907079697E0,9.831509590E0
2.082850765E1,-3.517449200E-1,1.517647743E0,1.080150032E1
2.084823140E1,-2.811566591E-1,1.226620674E0,1.193001556E1
2.086791822E1,-1.525424421E-2,9.056833982E-1,1.195633698E1
2.088761437E1,6.975077987E-1,7.749754190E-1,1.022662449E1
2.090734411E1,1.158425212E0,1.206281662E0,9.327222824E0
2.092703687E1,7.740781307E-1,1.246959686E0,8.844470978E0
2.094675312E1,2.267199457E-1,1.130907774E0,9.139086723E0
2.096644812E1,-1.375873089E-1,1.009771109E0,1.024816036E1
2.098618015E1,-4.932205677E-1,9.535398483E-1,1.063878822E1
2.100585432E1,-6.200401783E-1,1.097408295E0,1.200778198E1
2.102556948E1,-7.483552694E-1,9.643075466E-1,1.375394440E1
2.104526572E1,-2.739782035E-1,6.708876491E-1,1.327627754E1
2.106499937E1,2.075773627E-1,5.871388316E-1,1.087358475E1
2.108467083E1,2.817548811E-1,5.572285652E-1,8.131709099E0
2.110439599E1,4.507479668E-1,7.414759398E-1,6.696912289E0
2.112408286E1,8.255237937E-1,1.172782183E0,6.597609997E0
2.114378328E1,1.031605721E0,1.479362607E0,6.719644070E0
2.116349510E1,1.386042476E0,1.969292998E0,8.012067795E0
2.118319541E1,1.134497046E0,2.085345030E0,9.876974106E0
2.120289948E1,1.169192910E0,1.976471543E0,1.021226788E1
2.122260453E1,6.843472719E-1,1.823031783E0,9.773782730E0
2.124231531E1,-8.075776510E-3,1.704586983E0,1.047099209E1
2.126203479E1,-4.525425732E-1,1.130907774E0,1.051645565E1
2.128175677E1,-8.919246197E-1,4.612165689E-1,9.910472870E0
2.130145427E1,-1.082453132E0,3.858426586E-2,1.008066273E1
2.132112317E1,-1.363908887E0,-2.970091105E-1,1.112991524E1
2.134085088E1,-1.176969647E0,-4.716851711E-1,1.222463131E1
2.136054588E1,-4.058825374E-1,-2.344966233E-1,1.155852985E1
2.138027958E1,1.716850251E-1,1.031904742E-1,9.655338287E0
2.139997375E1,6.086742878E-1,4.743770957E-1,8.595317841E0
2.141965302E1,9.248259664E-1,7.414759398E-1,7.450352192E0
2.143935677E1,1.228116274E0,1.036092162E0,6.555436611E0
2.145907604E1,1.417149186E0,1.399203062E0,6.676573277E0
2.147876802E1,1.206580877E0,1.650748491E0,7.847859859E0
2.149847406E1,1.025623560E0,1.637588024E0,9.639784813E0
2.151817567E1,6.577271223E-1,1.497308731E0,1.122203922E1
2.153787901E1,-9.421738982E-2,1.083051324E0,1.192283726E1
2.155762166E1,-8.751748800E-1,6.206383705E-1,1.162193966E1
2.157729156E1,-9.448658228E-1,4.600201547E-1,1.023619652E1
2.159699427E1,-6.765705943E-1,6.146563292E-1,8.954540253E0
2.161673474E1,-4.884349108E-1,1.183549881E0,9.253045082E0
2.163640432E1,-7.004988194E-1,1.567897081E0,1.037647533E1
2.165611135E1,-7.842476368E-1,1.653141379E0,1.073569775E1
2.167581510E1,-9.664012194E-1,1.490130305E0,1.050568771E1
2.169553291E1,-7.447660565E-1,1.309173107E0,1.090588760E1
2.171525666E1,-4.154538214E-1,1.173978567E0,1.188903809E1
2.173493031E1,2.303091735E-1,9.164510965E-1,1.141854954E1
2.175463755E1,6.903293133E-1,9.032905698E-1,9.813564301E0
2.177437380E1,8.015955687E-1,9.128618240E-1,8.836095810E0
2.179404557E1,9.514461160E-1,9.966106415E-1,7.816753387E0
2.181377974E1,1.059123158E0,1.010967612E0,7.324429989E0
2.183348614E1,8.303094506E-1,7.929216027E-1,8.879166603E0
2.185316416E1,6.278168559E-1,3.942175210E-1,1.086760235E1
2.187286437E1,3.164508045E-1,-1.651047617E-1,1.262572861E1
2.189256619E1,-9.302098304E-2,-5.231308341E-1,1.299960709E1
2.191227307E1,-3.744767308E-1,-7.543373108E-1,1.227009583E1
2.193198578E1,-3.684946895E-1,-9.173483849E-1,9.819545746E0
2.195169682E1,-8.464609832E-2,-7.710871100E-1,7.009474754E0
2.197140666E1,1.441675574E-1,-5.279164910E-1,5.268098354E0
2.199110057E1,2.303091809E-2,-2.057827413E-1,5.351847172E0
2.201080422E1,4.336991161E-2,1.079761237E-1,7.410871029E0
2.203049338E1,3.140579537E-2,2.419741899E-1,9.648159981E0
2.205021698E1,-2.344966233E-1,1.761715710E-1,1.256112289E1
2.206991396E1,-9.855438471E-1,3.379862010E-2,1.463091373E1
2.208963562E1,-1.249053478E0,-1.423729509E-1,1.478525066E1
2.210932286E1,-8.045865893E-1,-3.472583890E-1,1.340429306E1
2.212906000E1,-4.585246444E-1,-7.148557901E-1,1.050808048E1
2.214872515E1,-4.345964193E-1,-9.867402315E-1,7.814360619E0
2.216844224E1,-2.584248483E-1,-9.125627279E-1,6.414260387E0
2.218816166E1,-3.200400248E-2,-5.724828243E-1,6.440581322E0
2.220784734E1,-1.405783277E-2,-1.160518974E-1,7.943871975E0
2.222757520E1,3.332005441E-1,2.288136631E-1,1.087597752E1
2.224723901E1,1.331007630E-1,2.144567221E-1,1.358525085E1
2.226695880E1,-2.344966233E-1,4.456632212E-2,1.362233925E1
2.228666692E1,-4.034897089E-1,-2.871387079E-2,1.102552891E1
2.230637567E1,-5.243272781E-1,9.361918271E-2,8.450551987E0
2.232606739E1,-4.657031000E-1,3.475574851E-1,6.993921280E0
2.234577953E1,-2.847459018E-1,5.018945336E-1,7.489833832E0
2.236546864E1,-2.572284341E-1,3.774677813E-1,8.475676537E0
2.238522156E1,-2.979064286E-1,2.841476798E-1,9.303294182E0
2.240489682E1,-3.840480447E-1,3.619144261E-1,1.021825027E1
2.242460854E1,-3.672982752E-1,4.971089065E-1,1.101834965E1
2.244430796E1,-4.525425732E-1,5.030909777E-1,1.114905834E1
2.246401453E1,-4.298107624E-1,1.749751568E-1,1.015484047E1
2.248374718E1,-5.518447161E-1,-1.351944804E-1,8.912666321E0
2.250342567E1,-8.225327730E-1,-4.884349108E-1,8.138887405E0
2.252313005E1,-8.285148144E-1,-5.183451772E-1,8.196614265E0
2.254283244E1,-5.410770178E-1,-3.448655605E-1,8.340183258E0
2.256253630E1,-3.649054468E-1,1.079761237E-1,8.806185722E0
2.258223869E1,-2.464607358E-1,5.440680385E-1,9.856635094E0
2.260192468E1,5.653043464E-2,7.295117974E-1,1.127468109E1
2.262165198E1,2.422732860E-1,7.773682475E-1,1.217767239E1
2.264136333E1,2.781656384E-2,4.181457460E-1,1.183400345E1
2.266105791E1,-5.901299119E-1,-2.871387079E-2,1.026610661E1
2.268075828E1,-7.387840152E-1,-4.381856322E-1,9.540482521E0
2.270046406E1,-7.375875711E-1,-1.087537885E0,9.253045082E0
2.272015916E1,-8.883354068E-1,-1.744965911E0,8.291130066E0
2.273988880E1,-4.680959284E-1,-2.064706802E0,7.543672562E0
2.275961135E1,-1.962114573E-1,-1.813161373E0,7.418049335E0
2.277929572E1,2.123630047E-1,-1.180858016E0,8.456534386E0
2.279899093E1,5.356931686E-1,-3.245265782E-1,9.718748093E0
2.281871291E1,6.625127792E-1,4.504488707E-1,1.092502975E1
2.283841500E1,6.951149702E-1,1.019342422E0,1.219831085E1
2.285808713E1,4.543372095E-1,1.220638633E0,1.278515053E1
2.287781302E1,4.695914313E-2,1.133300662E0,1.230718422E1
2.289752239E1,-4.932205677E-1,8.075776696E-1,1.049850941E1
2.291724520E1,-1.005882859E0,3.798605800E-1,8.479266167E0
2.293693541E1,-1.093220830E0,-1.196411322E-3,7.386942387E0
2.295664239E1,-1.355534077E0,-2.440679073E-1,7.002296448E0
2.297634328E1,-1.627418518E0,-6.418746710E-1,7.250252724E0
2.299604401E1,-1.238285661E0,-1.004686356E0,8.282755852E0
2.301575213E1,-8.524430394E-1,-1.155733347E0,9.733105659E0
2.303546494E1,-4.214358926E-1,-1.110269666E0,1.088315582E1
2.305515401E1,6.849455088E-2,-7.339983582E-1,1.153340530E1
2.307486453E1,3.930211067E-1,-9.451649338E-2,1.207837009E1
2.309457708E1,4.028915167E-1,3.116651475E-1,1.216570854E1
2.311427338E1,3.332005441E-1,3.260220885E-1,1.160638618E1
2.313398255E1,6.370890141E-2,1.283151209E-1,1.041356373E1
2.315367411E1,-4.357928336E-1,-3.436691463E-1,8.782257080E0
2.317338859E1,-8.249256015E-1,-6.394818425E-1,7.704290867E0
2.319309411E1,-9.723833203E-1,-7.100701332E-1,7.450352192E0
2.321279453E1,-1.056132078E0,-4.752743840E-1,8.158029556E0
2.323250708E1,-7.950153351E-1,1.944168471E-2,9.413364410E0
2.325220760E1,-4.549354017E-1,2.889333367E-1,1.067587757E1
2.327192640E1,-3.798605874E-2,5.428716540E-1,1.141974640E1
2.329161369E1,1.187438220E-1,7.546364665E-1,1.153101254E1
2.331132317E1,-1.217348501E-1,7.271189690E-1,1.105304623E1
2.333102864E1,-4.441677034E-1,4.995017350E-1,1.111645603E1
2.335074364E1,-7.878368497E-1,9.601201117E-2,1.071535873E1
2.337043989E1,-1.089631557E0,-1.830509305E-1,1.020149994E1
2.339015422E1,-9.664012194E-1,-3.556332588E-1,9.872187614E0
2.340984588E1,-9.230313301E-1,-3.735794425E-1,9.342776299E0
2.342955619E1,-6.320042610E-1,-2.682952285E-1,9.241978645E0
2.344926442E1,-3.110669553E-1,-1.160518974E-1,9.916455269E0
2.346896250E1,-1.277169138E-1,-2.751746029E-2,1.029003429E1
2.348866896E1,-9.302098304E-2,3.978067636E-2,1.062682438E1
2.350835302E1,-2.177468538E-1,6.370890141E-2,1.020149994E1
2.352807239E1,-3.074777126E-1,2.431706041E-1,9.679266930E0
2.354778328E1,-2.811566591E-1,4.097708762E-1,9.104391098E0
2.356747958E1,-2.201396823E-1,4.863412082E-1,8.281558990E0
2.358716104E1,-2.045863420E-1,5.620142221E-1,8.361719131E0
2.360686260E1,-3.696911037E-1,5.006981492E-1,8.953344345E0
2.362660208E1,-5.458626747E-1,2.997010350E-1,9.867402077E0
2.364630974E1,-5.003990531E-1,-6.340979785E-2,1.091904831E1
2.366601031E1,-6.068796515E-1,-3.580260873E-1,1.012014389E1
2.368571531E1,-4.393820465E-1,-2.850449979E-1,9.486345291E0
2.370544739E1,-4.573282301E-1,-1.710868180E-1,9.487542152E0
2.372513562E1,-4.896313250E-1,-1.387837082E-1,9.670891762E0
2.374483104E1,-2.811566591E-1,-2.488535494E-1,1.043270683E1
2.376453708E1,-6.741777658E-1,-4.956133962E-1,1.044227791E1
2.378423776E1,-9.206385016E-1,-6.334998012E-1,9.773782730E0
2.380394317E1,-9.110672474E-1,-5.856433511E-1,9.235996246E0
2.382365083E1,-8.452646136E-1,-3.508476317E-1,8.349754333E0
2.384337031E1,-6.272186637E-1,-8.494520187E-2,7.604689598E0
2.386304771E1,-3.924229145E-1,1.127617657E-1,8.404789925E0
2.388275448E1,-5.745765567E-1,3.140579537E-2,9.253045082E0
2.390246963E1,-6.678966284E-1,-9.810572863E-2,9.770194054E0
2.392217515E1,-7.926225066E-1,-1.794617027E-1,1.036451149E1
2.394185427E1,-9.302098155E-1,-2.464607358E-1,1.000139999E1
2.396157880E1,-9.134600163E-1,-1.782652885E-1,9.220442772E0
2.398128505E1,-1.005882859E0,-1.292124242E-1,8.881559372E0
2.400098786E1,-1.074078321E0,-9.571290575E-3,9.276973724E0
2.402069427E1,-1.112363458E0,2.422732860E-2,1.001216793E1
2.404039734E1,-1.339980721E0,-2.033899166E-2,1.014526844E1
2.406010026E1,-1.377069473E0,-7.178467698E-3,1.008185863E1
2.407980526E1,-1.207179070E0,5.892325938E-2,1.049731255E1
2.409952198E1,-1.035793066E0,7.328019291E-2,1.073210907E1
2.411922323E1,-8.057830334E-1,1.534397453E-1,1.059332466E1
2.413893578E1,-5.997011662E-1,2.527419031E-1,1.036929703E1
2.415863849E1,-5.075774789E-1,3.379862010E-1,1.002293587E1
2.417831526E1,-2.775674164E-1,3.044866920E-1,9.611071587E0
2.419803703E1,-8.943174779E-2,9.122636169E-2,9.165408134E0
2.421774520E1,-1.166501082E-2,-2.874378264E-1,8.610871315E0
2.423745625E1,5.653043464E-2,-6.179464459E-1,8.251648903E0
2.425714994E1,2.183450572E-2,-8.359923959E-1,8.577371597E0
2.427686234E1,-1.097707376E-1,-9.508479238E-1,8.938986778E0
2.429657791E1,-2.548356056E-1,-7.914260626E-1,9.261420250E0
2.431627026E1,-3.720839322E-1,-4.920241535E-1,9.937990189E0
2.433599682E1,-6.945167780E-1,-3.317050338E-1,1.033101177E1
2.435567562E1,-1.045364380E0,-2.826521695E-1,9.943972588E0
2.437537583E1,-1.265803218E0,-2.584248483E-1,9.538089752E0
2.439510109E1,-1.399801254E0,-3.831507266E-1,9.357132912E0
2.441480343E1,-1.456032634E0,-5.653043389E-1,8.772686005E0
2.443450411E1,-1.488634825E0,-6.514459848E-1,8.728418350E0
2.445419812E1,-1.659721613E0,-7.399803996E-1,9.140283585E0
2.447390140E1,-1.666900039E0,-7.674978375E-1,1.014287567E1
2.449360974E1,-1.593919039E0,-8.395816684E-1,1.138116169E1
2.451329494E1,-1.744965911E0,-8.599206209E-1,1.127228832E1
2.453302276E1,-1.550848126E0,-7.016952634E-1,9.783653259E0
2.455272218E1,-1.250249863E0,-4.728815854E-1,8.410771370E0
2.457242687E1,-1.374676585E0,-1.794617027E-1,8.012067795E0
2.459214146E1,-1.458425403E0,-7.896314561E-2,8.724829674E0
2.461184437E1,-1.314856052E0,-5.862415582E-2,9.948758125E0
2.463153817E1,-9.206385016E-1,6.969095767E-2,1.072492981E1
2.465124354E1,-6.607181430E-1,1.797607988E-1,1.132134151E1
2.467096005E1,-3.529413342E-1,1.893320978E-1,1.167966652E1
2.469065453E1,-1.710868180E-1,-1.076770201E-2,1.136560822E1
2.471036547E1,-2.955136001E-1,-2.249253243E-1,1.037049294E1
2.473008458E1,-6.104688644E-1,-3.616153300E-1,9.649356842E0
2.474977422E1,-1.083649516E0,-5.784648657E-1,9.249456406E0
2.476947567E1,-9.855438471E-1,-6.083751321E-1,8.989535332E0
2.478917869E1,-9.314061999E-1,-5.868397355E-1,8.953344345E0
2.480888677E1,-9.412766099E-1,-5.027918816E-1,9.824331284E0
2.482859187E1,-6.080760360E-1,-3.735794425E-1,1.138355446E1
2.484830479E1,-3.613162339E-1,-5.315057039E-1,1.300199986E1
2.486800198E1,8.045866340E-2,-8.587242365E-1,1.338036537E1
2.488770500E1,-1.986042857E-1,-1.013061285E0,1.118853951E1
2.490741125E1,-1.734796464E-1,-9.819545746E-1,8.954540253E0
2.492711578E1,-5.832505226E-2,-8.264211416E-1,7.440781116E0
2.494682781E1,1.031904742E-1,-6.598208547E-1,6.414260387E0
2.496650578E1,2.135594189E-1,-5.207380056E-1,6.663413048E0
2.498622869E1,5.772684515E-2,-4.082753658E-1,7.640881062E0
2.500593776E1,-3.768695593E-1,-3.257229924E-1,8.956933022E0
2.502564031E1,-6.861419082E-1,-2.850449979E-1,1.115862942E1
2.504534114E1,-1.418943882E0,-1.172483116E-1,1.301516056E1
2.506504953E1,-1.985444546E0,-2.706880569E-1,1.346531010E1
2.508473255E1,-2.288734913E0,-2.814557552E-1,1.266042423E1
2.510447526E1,-2.697010279E0,-3.424727321E-1,1.128066349E1
2.512415536E1,-2.551048040E0,-3.077768087E-1,9.300901413E0
2.514387161E1,-2.205883265E0,-1.471585929E-1,7.770093441E0
2.516357270E1,-2.092224360E0,-1.184447184E-1,7.453941822E0
2.518325755E1,-2.013261080E0,-1.447657645E-1,8.417949677E0
2.520297651E1,-1.865803480E0,-3.604189157E-1,1.003729248E1
2.522269093E1,-1.841875196E0,-8.276175261E-1,1.219352531E1
2.524239948E1,-1.664507270E0,-1.158126116E0,1.334686565E1
2.526209510E1,-1.361516118E0,-1.259821177E0,1.253719425E1
2.528179484E1,-1.185344458E0,-1.107876897E0,1.046740246E1
2.530151760E1,-1.109970570E0,-9.077770710E-1,9.171390533E0
2.532122317E1,-1.045364380E0,-6.586244106E-1,8.676673889E0
2.534092812E1,-1.052542806E0,-6.562315822E-1,8.776275635E0
2.536062567E1,-9.664012194E-1,-6.957131624E-1,8.912666321E0
2.538032020E1,-7.734799385E-1,-6.789634228E-1,9.081659317E0
2.540002906E1,-8.979067206E-1,-6.658028960E-1,9.728319168E0
2.541974255E1,-1.200897813E0,-5.557330847E-1,1.091426182E1
2.543944593E1,-1.355534077E0,-4.250251353E-1,1.153938675E1
2.545913838E1,-1.504188180E0,-2.117647976E-1,1.101236820E1
2.547884448E1,-1.736291885E0,-5.982056726E-3,9.923633575E0
2.549855505E1,-2.062314034E0,2.383849621E-1,9.399007797E0
2.551823531E1,-2.208276272E0,3.595215976E-1,9.651749611E0
2.553795744E1,-2.231008053E0,2.371885478E-1,1.033819008E1
2.555769166E1,-2.282752752E0,-1.304088384E-1,1.091426182E1
2.557740198E1,-2.132902384E0,-4.441677034E-1,1.140658569E1
2.559708781E1,-2.144866467E0,-7.519445419E-1,1.164586735E1
2.561678885E1,-1.939980984E0,-9.041878581E-1,1.117896843E1
2.563648989E1,-1.636989832E0,-8.575277925E-1,1.047338486E1
2.565619416E1,-1.727917075E0,-7.399803996E-1,1.055354404E1
2.567589349E1,-1.875374794E0,-7.722834945E-1,1.085803127E1
2.569559364E1,-1.695613980E0,-8.120641708E-1,1.004327488E1
2.571530369E1,-1.423729420E0,-8.682954907E-1,8.519944191E0
2.573498849E1,-1.316052437E0,-7.806583643E-1,7.356733322E0
2.575472375E1,-1.361516118E0,-6.203392744E-1,6.992724895E0
2.577442198E1,-1.250249863E0,-3.999004960E-1,7.912765503E0
2.579412677E1,-1.296909928E0,-1.507478207E-1,9.231210709E0
2.581382901E1,-1.418943882E0,1.486541033E-1,1.032383347E1
2.583353307E1,-1.676471353E0,5.404788256E-1,1.148913765E1
2.585322588E1,-2.167598248E0,8.267202377E-1,1.227847004E1
2.587292833E1,-2.349751949E0,9.870393276E-1,1.290479183E1
2.589264625E1,-2.646760941E0,8.865407705E-1,1.202931786E1
2.591235651E1,-2.855235577E0,5.715855360E-1,1.048176003E1
2.593206104E1,-2.798705101E0,4.097708762E-1,9.861420631E0
2.595176937E1,-2.494517565E0,6.849455088E-2,9.882955551E0
2.597147526E1,-2.128116608E0,-2.440679073E-1,1.045663452E1
2.599116505E1,-1.675274968E0,-5.027918816E-1,1.115264702E1
2.601087557E1,-1.299302697E0,-5.748756528E-1,1.132612705E1
2.603058557E1,-8.213363886E-1,-6.107679605E-1,1.123041439E1
2.605028244E1,-6.607181430E-1,-6.406782866E-1,1.085204887E1
2.606999583E1,-7.555337548E-1,-7.136593461E-1,9.442078590E0
2.608971854E1,-8.991031051E-1,-7.579265833E-1,7.905287743E0
2.610939911E1,-1.217946768E0,-5.916253924E-1,7.070491791E0
2.612913385E1,-1.326820135E0,-3.101696372E-1,6.795018196E0
2.614881927E1,-1.620239973E0,1.465603895E-2,7.453941822E0
2.616852078E1,-1.967498422E0,3.080759048E-1,8.442177773E0
2.618823526E1,-2.107777596E0,5.967101455E-1,9.773782730E0
2.620792099E1,-2.318645239E0,6.996015310E-1,1.168804169E1
2.622763208E1,-2.434697151E0,8.243274093E-1,1.266640663E1
2.624733442E1,-2.201097727E0,9.990034699E-1,1.149272728E1
2.626703057E1,-2.062314034E0,1.117747307E0,9.523733139E0
2.628674203E1,-2.386840582E0,1.280459166E0,9.073284149E0
2.630642635E1,-2.764009237E0,1.170389414E0,9.208478928E0
2.632616359E1,-2.866003275E0,8.518448472E-1,1.004327488E1
2.634586989E1,-2.985644341E0,5.198407173E-1,1.082183933E1
2.636557250E1,-2.954537868E0,4.325026870E-1,1.093699455E1
2.638525760E1,-2.523231506E0,8.135597110E-1,1.114427280E1
2.640497786E1,-2.005783558E0,1.386042476E0,1.126750278E1
2.642465739E1,-1.294517040E0,1.880758643E0,1.104826069E1
2.644439250E1,-1.107577801E0,2.055434704E0,1.065194893E1
2.646408609E1,-1.313659668E0,1.795514345E0,9.918848038E0
2.648379067E1,-1.858624935E0,1.498505235E0,9.489934921E0
2.650349640E1,-2.136491537E0,1.126122117E0,9.110373497E0
2.652317927E1,-2.088634968E0,7.223333120E-1,7.804789066E0
2.654290614E1,-2.033600092E0,5.967101455E-1,6.975975513E0
2.656261021E1,-2.116152525E0,7.079764009E-1,7.268198967E0
2.658231619E1,-2.111366987E0,7.354938388E-1,8.407182693E0
2.660202901E1,-1.725524187E0,5.751747489E-1,9.798010826E0
2.662172958E1,-1.542473316E0,4.660021961E-1,1.074168015E1
2.664143979E1,-1.788036704E0,1.558325738E-1,1.102552891E1
2.666112927E1,-2.106581211E0,8.673981763E-3,1.113709354E1
2.668083442E1,-2.171187401E0,9.720841795E-2,1.098724365E1
2.670053843E1,-1.963909149E0,1.737787426E-1,1.045783138E1
2.672025021E1,-2.254936218E0,4.983053207E-1,1.066989517E1
2.673996026E1,-2.398804665E0,8.171489239E-1,1.158006477E1
2.675965802E1,-2.282752752E0,9.858429432E-1,1.257667542E1
2.677936161E1,-1.908874273E0,1.044467092E0,1.242802143E1
2.679905593E1,-1.629811287E0,9.798609018E-1,1.134766197E1
2.681876687E1,-1.355534077E0,8.650053740E-1,9.912865639E0
2.683850661E1,-9.182456732E-1,8.614161611E-1,9.263813019E0
2.685816302E1,-4.597210586E-1,9.020941257E-1,9.630213737E0
2.687788828E1,-1.181456149E-1,7.606185079E-1,9.494720459E0
2.689760093E1,-3.200400248E-2,8.458628058E-1,1.012134075E1
2.691729797E1,-3.242274821E-1,9.415757060E-1,1.179332542E1
2.693700896E1,-4.836492836E-1,7.558328509E-1,1.156092262E1
2.695670911E1,-6.933203340E-1,8.482556343E-1,1.039801121E1
2.697642192E1,-1.157827020E0,1.016949654E0,9.891330719E0
2.699611172E1,-1.405783296E0,9.535398483E-1,8.868398666E0
2.701581552E1,-1.493420482E0,8.171489239E-1,7.575975418E0
2.703552838E1,-1.506580949E0,8.781659007E-1,7.281359196E0
2.705522859E1,-1.700399637E0,1.025324464E0,7.972586155E0
2.707493640E1,-2.067099571E0,1.062413216E0,9.538089752E0
2.709464182E1,-2.039582253E0,8.985049129E-1,1.107936668E1
2.711434724E1,-1.815554142E0,5.464608669E-1,1.196830082E1
2.713405093E1,-1.804786444E0,4.277170599E-1,1.115025425E1
2.715373546E1,-2.123331070E0,4.289134443E-1,1.007348442E1
2.717345968E1,-2.408375978E0,3.535395563E-1,9.332008362E0
2.719316422E1,-2.389233351E0,2.108674943E-1,9.227621078E0
2.721284885E1,-2.244168520E0,1.654038578E-1,8.683852196E0
2.723257656E1,-2.019243240E0,1.115653589E-1,7.535297394E0
2.725227422E1,-1.975873351E0,3.020938635E-1,7.382156849E0
2.727198489E1,-1.792822361E0,5.198407173E-1,8.490034103E0
2.729170640E1,-1.213161111E0,5.138586760E-1,1.016680431E1
2.731140942E1,-1.009472013E0,4.851447940E-1,1.222941780E1
2.733111698E1,-1.411765337E0,2.300100774E-1,1.346650696E1
2.735082198E1,-1.971087694E0,1.749751568E-1,1.312164116E1
2.737053489E1,-2.277967215E0,3.822534084E-1,1.080389309E1
2.739021526E1,-2.425125837E0,5.018945336E-1,8.401200294E0
2.740991687E1,-2.464607239E0,7.809575200E-1,7.502994537E0
2.742965078E1,-2.196312189E0,1.027717352E0,7.752147198E0
2.744933729E1,-1.671685696E0,1.024128079E0,8.281558990E0
2.746901020E1,-1.288534999E0,1.085444212E0,8.895915985E0
2.748873328E1,-1.232303619E0,1.243370414E0,1.006989479E1
2.750843755E1,-1.222732425E0,1.316351533E0,1.135364437E1
2.752814224E1,-1.155434251E0,1.146461129E0,1.257308674E1
2.754782573E1,-1.368694544E0,9.212366939E-1,1.177298641E1
2.756755885E1,-1.601097465E0,7.570292354E-1,1.023619652E1
2.758726625E1,-1.992623091E0,6.924230456E-1,1.035494041E1
2.760699630E1,-2.045564175E0,4.420739710E-1,1.102552891E1
2.762667567E1,-1.621436477E0,1.295115203E-1,1.136201954E1
2.764638338E1,-1.429711580E0,-6.939185411E-2,1.087956619E1
2.766606468E1,-1.282552958E0,-1.830509305E-1,9.893723488E0
2.768577822E1,-1.064507008E0,-1.483550072E-1,8.741579056E0
2.770548260E1,-7.926225066E-1,2.183450572E-2,7.767700672E0
2.772518974E1,-5.470590591E-1,3.080759048E-1,7.494619846E0
2.774489646E1,-6.523432732E-1,7.295117974E-1,7.738986492E0
2.776462401E1,-5.422734022E-1,9.738788009E-1,9.033802986E0
2.778430984E1,-6.801598072E-1,1.115354419E0,1.047936630E1
2.780400807E1,-9.424729943E-1,9.236295223E-1,1.114427280E1
2.782372296E1,-1.387837172E0,7.725825906E-1,1.105543900E1
2.784344020E1,-1.690828323E0,5.294120312E-1,1.031396294E1
2.786312302E1,-1.886142492E0,4.013960063E-1,9.795618057E0
2.788281067E1,-2.065903187E0,3.248256743E-1,9.854242325E0
2.790252682E1,-2.044367790E0,3.212364316E-1,9.995418549E0
2.792224010E1,-1.890928149E0,5.030909777E-1,1.034536839E1
2.794194729E1,-1.464407444E0,7.689933777E-1,1.074168015E1
2.796164130E1,-1.026221752E0,9.403793216E-1,1.031157017E1
2.798136166E1,-6.945167780E-1,1.208674550E0,9.399007797E0
2.800104541E1,-4.429712892E-1,1.400399446E0,9.321240425E0
2.802076276E1,-2.979064286E-1,1.510469317E0,1.009023380E1
2.804047562E1,-3.613162339E-1,1.238584876E0,1.135962677E1
2.806020135E1,-6.068796515E-1,8.602197170E-1,1.192164040E1
2.807991020E1,-8.991031051E-1,5.763711333E-1,1.135125160E1
2.809959625E1,-1.047757268E0,5.739783049E-1,1.026371384E1
2.811929333E1,-1.089631557E0,6.948158741E-1,9.379864693E0
2.813898864E1,-1.325623751E0,9.367900491E-1,9.154640198E0
2.815869166E1,-1.448854089E0,1.096211910E0,9.516554832E0
2.817839974E1,-1.474277854E0,1.159621716E0,9.812367439E0
2.819810588E1,-1.510170221E0,1.145264745E0,1.002293587E1
2.821784020E1,-1.552044630E0,1.121336460E0,9.795618057E0
2.823752656E1,-1.428515077E0,1.141675472E0,9.482755661E0
2.825724708E1,-1.365105271E0,1.371685624E0,9.583553314E0
2.827692083E1,-1.226321578E0,1.459023595E0,9.716355324E0
2.829661911E1,-1.383051515E0,1.535593987E0,1.029960632E1
2.831632338E1,-1.558026671E0,1.445863128E0,1.117179012E1
2.833601635E1,-1.477867126E0,1.170389414E0,1.183639622E1
2.835574375E1,-1.393819213E0,6.924230456E-1,1.121605682E1
2.837544916E1,-1.111167073E0,3.200400174E-1,9.239585876E0
2.839514692E1,-9.532406926E-1,3.092723191E-1,7.952247143E0
2.841485552E1,-8.093722463E-1,5.150550604E-1,7.159325123E0
2.843455812E1,-4.896313250E-1,9.678967595E-1,7.835896015E0
2.845427672E1,-5.315057039E-1,1.340578914E0,1.011775112E1
2.847400364E1,-7.543373108E-1,1.468594909E0,1.189023495E1
2.849370416E1,-8.165507317E-1,1.321137190E0,1.270588779E1
2.851337416E1,-7.890332937E-1,1.057627559E0,1.079551888E1
2.853308843E1,-7.016952634E-1,9.667003751E-1,8.419146538E0
2.855279781E1,-8.069794178E-1,1.081854939E0,7.629814148E0
2.857250573E1,-7.950153351E-1,1.146461129E0,8.165207863E0
2.859221927E1,-7.818548083E-1,1.189531922E0,9.771389961E0
2.861190177E1,-9.182456732E-1,1.246959686E0,1.146281719E1
2.863160500E1,-1.191326618E0,1.171585798E0,1.244118214E1
2.865130890E1,-1.318445325E0,9.475577474E-1,1.170359421E1
2.867102515E1,-1.185344458E0,7.654041648E-1,9.626625061E0
2.869075213E1,-9.400802255E-1,8.338986635E-1,8.579764366E0
2.871042078E1,-9.062815905E-1,9.918249846E-1,8.181060791E0
2.873012849E1,-7.878368497E-1,1.068395257E0,8.449356079E0
2.874983864E1,-4.944169819E-1,1.138086319E0,9.436096191E0
2.876954974E1,-2.117647976E-1,1.139282703E0,9.882955551E0
2.878927500E1,-1.037886813E-1,1.236191988E0,1.019791126E1
2.880897896E1,-1.073779166E-1,1.238584876E0,1.043509960E1
2.882868531E1,7.477570791E-3,1.086640596E0,1.012014389E1
2.884836208E1,3.888336709E-3,9.607182741E-1,9.124730110E0
2.886805698E1,-2.243271284E-2,9.762716293E-1,8.825327873E0
2.888776250E1,-3.637090325E-1,8.446664214E-1,8.539086342E0
2.890748302E1,-3.314059377E-1,9.176474810E-1,8.797810555E0
2.892717494E1,-3.996013701E-1,9.439685345E-1,9.746265411E0
2.894690703E1,-5.494518876E-1,1.058824062E0,9.585947037E0
2.896659218E1,-6.320042610E-1,1.327119231E0,1.015603638E1
2.898629281E1,-6.801598072E-1,1.351346612E0,1.125194931E1
2.900601021E1,-6.678966284E-1,1.165603757E0,1.192642593E1
2.902570234E1,-5.446662307E-1,8.012964725E-1,1.165693474E1
2.904540213E1,-8.153542876E-1,6.768696904E-1,1.031665516E1
2.906510703E1,-7.531409264E-1,7.462615371E-1,8.652746201E0
2.908482812E1,-2.440679073E-1,1.203888893E0,8.037192345E0
2.910452396E1,6.131608039E-2,1.532004714E0,8.478069305E0
2.912423302E1,1.944168359E-1,1.714158297E0,9.427721024E0
2.914392885E1,-5.353940651E-2,1.616052628E0,1.022542858E1
2.916365948E1,-5.353940651E-2,1.298405409E0,1.046022415E1
2.918334036E1,1.585244983E-1,1.089033365E0,1.040159988E1
2.920306390E1,-4.875376076E-2,9.559326172E-1,1.034417248E1
2.922274599E1,-2.321037948E-1,9.188438654E-1,1.079312611E1
2.924244833E1,-3.122633696E-1,8.745766878E-1,1.058973598E1
2.926218359E1,-2.608176768E-1,9.296116233E-1,9.809974670E0
2.928186020E1,-1.133599728E-1,1.152443171E0,9.593125343E0
2.930156198E1,-1.722832322E-1,1.291226864E0,9.512965202E0
2.932126838E1,1.495514181E-3,1.245763302E0,9.282955170E0
2.934099265E1,2.027917206E-1,1.183549881E0,9.097212791E0
2.936071244E1,8.404789865E-2,1.177567840E0,9.314062119E0
2.938042062E1,-7.387840003E-2,1.147657514E0,9.827920914E0
2.940009208E1,4.695914313E-2,1.165603757E0,1.001336479E1
2.941979448E1,2.159522474E-1,1.301994562E0,9.700801849E0
2.943948614E1,-4.396811500E-2,1.567897081E0,9.631410599E0
2.945922442E1,-3.337987661E-1,1.739282966E0,1.049970531E1
2.947894203E1,-3.553341627E-1,1.539183140E0,1.118016434E1
2.949864646E1,-2.608176768E-1,1.062413216E0,1.107458115E1
2.951831625E1,-3.014956415E-1,6.206383705E-1,1.021226788E1
2.953802286E1,-4.322035909E-1,4.181457460E-1,9.266205788E0
2.955772906E1,-2.823530734E-1,4.253242314E-1,8.572586060E0
2.957743302E1,1.235294715E-1,7.223333120E-1,8.646763802E0
2.959713588E1,3.044866920E-1,1.079462171E0,9.885348320E0
2.961687755E1,1.537388563E-1,1.280459166E0,1.075244808E1
2.963657521E1,1.609173268E-1,1.396810174E0,1.059332466E1
2.965628729E1,2.171486616E-1,1.576271892E0,1.028405285E1
2.967596510E1,1.441675574E-1,1.493719578E0,9.803992271E0
2.969565979E1,2.697907388E-1,1.445863128E0,1.009023380E1
2.971536052E1,2.267199457E-1,1.224227905E0,1.040877819E1
2.973507349E1,3.020938635E-1,1.002592683E0,1.011176968E1
2.975477307E1,6.433702111E-1,9.774680734E-1,1.008305550E1
2.977448047E1,5.201398134E-1,9.834501147E-1,1.006869888E1
2.979419922E1,5.093721151E-1,1.064806104E0,9.979865074E0
2.981392265E1,6.672984362E-1,1.266102314E0,9.504291534E0
2.983362984E1,6.122635007E-1,1.209870934E0,9.507881165E0
2.985330797E1,5.931209326E-1,1.548754454E0,9.969097137E0
2.987304489E1,4.782654345E-1,1.467398524E0,9.988240242E0
2.989274036E1,1.872383654E-1,1.469791293E0,1.016680431E1
2.991242817E1,1.657029688E-1,1.511665702E0,1.071296597E1
2.993211776E1,6.729813665E-2,1.408774376E0,1.105424213E1
2.995182468E1,-1.507478207E-1,1.030110121E0,1.092502975E1
2.997153562E1,-3.200400248E-2,7.666005492E-1,1.063519955E1
2.999126802E1,2.542374134E-1,5.114658475E-1,9.262616158E0
3.001093994E1,4.531407952E-1,7.283154130E-1,8.324629784E0
3.003066677E1,5.464608669E-1,9.834501147E-1,8.280363083E0
3.005035557E1,7.908278704E-1,1.303191066E0,8.350951195E0
3.007005062E1,8.853443861E-1,1.558325768E0,8.760722160E0
3.008976703E1,7.118647099E-1,1.607677698E0,9.390632629E0
3.010948172E1,3.930211067E-1,1.453041553E0,9.612267494E0
3.012920114E1,2.542374134E-1,1.273280740E0,9.963115692E0
3.014887843E1,3.463610709E-1,9.822536707E-1,9.497113228E0
3.016858317E1,4.483551383E-1,9.116654396E-1,9.358329773E0
3.018832083E1,1.908276081E-1,7.630113363E-1,9.718748093E0
3.020798932E1,1.645065546E-1,7.151548862E-1,9.608678818E0
3.022768317E1,1.465603858E-1,7.773682475E-1,9.084052086E0
3.024738281E1,5.653043464E-2,1.046859860E0,8.512765884E0
3.026710172E1,2.901297435E-2,1.427916884E0,8.895915985E0
3.028681057E1,-1.181456149E-1,1.590628862E0,9.572786331E0
3.030652338E1,-1.764706708E-2,1.542772412E0,9.966704369E0
3.032619729E1,-1.109671518E-1,1.316351533E0,1.043749237E1
3.034589750E1,-3.146561682E-1,1.127318621E0,1.042433167E1
3.036564015E1,-1.351944804E-1,9.511470199E-1,1.029242706E1
3.038533932E1,2.542374097E-2,8.626125455E-1,9.712766647E0
3.040507109E1,2.542374134E-1,8.530412912E-1,8.826524734E0
3.042474963E1,2.997010350E-1,1.024128079E0,8.877969742E0
3.044444708E1,3.726821244E-1,1.205085278E0,9.106783867E0
3.046413823E1,3.714857101E-1,1.191924810E0,9.492327690E0
3.048385922E1,5.273182988E-1,1.123729348E0,9.170193672E0
3.050357687E1,4.328017831E-1,1.176371455E0,9.497113228E0
3.052327343E1,3.643072546E-1,1.159621716E0,1.026490974E1
3.054298338E1,4.770690203E-1,1.028913736E0,1.063878822E1
3.056267703E1,6.206383705E-1,8.865407705E-1,1.025055313E1
3.058238125E1,5.285146832E-1,9.308080077E-1,9.268598557E0
3.060209760E1,6.337988973E-1,1.145264745E0,8.984749794E0
3.062180052E1,7.525427341E-1,1.244566917E0,8.818149567E0
3.064150343E1,9.466604590E-1,1.159621716E0,8.855237961E0
3.066120640E1,6.397809386E-1,1.266102314E0,9.920044899E0
3.068094312E1,1.764706671E-1,1.157228827E0,1.102193928E1
3.070063734E1,1.585244983E-1,1.069591761E0,1.154656601E1
3.072034713E1,1.295115203E-1,8.327022791E-1,1.084098244E1
3.074002953E1,-1.902294010E-1,7.486543655E-1,9.619445801E0
3.075974916E1,-2.321037948E-1,8.422735929E-1,9.329615593E0
3.077943635E1,6.490531564E-2,1.008574724E0,9.464810371E0
3.079914286E1,3.774677813E-1,1.238584876E0,9.451649666E0
3.081883156E1,3.762713671E-1,1.482951880E0,9.766604424E0
3.083855609E1,1.513460279E-1,1.606481314E0,1.088913727E1
3.085826687E1,1.573280841E-1,1.456630826E0,1.135244751E1
3.087795796E1,9.002995491E-2,1.151246786E0,1.049252701E1
3.089769281E1,1.235294715E-1,9.798609018E-1,8.947361946E0
3.091738505E1,2.961117923E-1,1.117747307E0,8.086244583E0
3.093708755E1,4.651049078E-1,1.357328653E0,8.176275253E0
3.095678807E1,8.219345808E-1,1.553540111E0,8.956933022E0
3.097648041E1,9.957132936E-1,1.631605983E0,1.035613632E1
3.099622057E1,4.998008311E-1,1.566700578E0,1.209990597E1
3.101591875E1,3.152543902E-1,1.232602715E0,1.200419331E1
3.103559760E1,3.391826153E-1,1.105783105E0,1.042792130E1
3.105532401E1,3.032902777E-1,1.148854017E0,9.063713074E0
3.107500656E1,3.499503136E-1,1.184746265E0,9.100801468E0
3.109472036E1,4.674977362E-1,1.123729348E0,9.906884193E0
3.111445302E1,2.075773627E-1,8.650053740E-1,1.091545868E1
3.113413796E1,2.087737769E-1,7.151548862E-1,1.121366405E1
3.115382718E1,-1.109671518E-1,7.749754190E-1,1.129262733E1
3.117353932E1,-2.057827413E-1,8.757730722E-1,1.047577763E1
3.119326739E1,2.506481707E-1,1.171585798E0,8.888737679E0
3.121294609E1,3.511467278E-1,1.467398524E0,7.558029652E0
3.123264859E1,2.817548811E-1,1.767996788E0,7.278966427E0
3.125237401E1,1.115653589E-1,1.846959949E0,8.280363083E0
3.127206494E1,1.525424421E-1,1.612463355E0,9.910472870E0
3.129176619E1,4.292125702E-1,1.264905930E0,1.115862942E1
3.131146786E1,2.578266263E-1,9.475577474E-1,1.138235855E1
3.133117224E1,1.597209126E-1,8.709874153E-1,1.088794136E1
3.135089510E1,7.046862841E-1,1.034895778E0,9.422935486E0
3.137060396E1,1.007677436E0,1.322333574E0,8.527122498E0
3.139029099E1,9.056833982E-1,1.511665702E0,8.800203323E0
3.140999239E1,4.830510616E-1,1.340578914E0,9.638588905E0
3.142973218E1,2.769692242E-1,9.547362328E-1,9.759426117E0
3.144940979E1,3.415754437E-1,7.857431173E-1,9.170193672E0
3.146910562E1,8.285148442E-2,8.973084688E-1,9.297312737E0
3.148882406E1,4.576273263E-2,1.010967612E0,1.003489971E1
3.150851698E1,5.416752100E-1,1.282852054E0,1.088315582E1
3.152825468E1,6.735795736E-1,1.403988719E0,1.092144108E1
3.154792755E1,6.625127792E-1,1.558325768E0,1.041954613E1
3.156763682E1,5.667998791E-1,1.492523074E0,9.786046028E0
3.158731661E1,4.926223755E-1,1.264905930E0,8.034799576E0
3.160701796E1,7.956135273E-1,1.211067319E0,7.092027187E0
3.162675744E1,6.469594240E-1,1.138086319E0,7.446763039E0
3.164645208E1,4.974080026E-1,9.906286001E-1,9.272188187E0
3.166615802E1,6.050850153E-1,7.055835724E-1,1.084935665E1
3.168589698E1,5.309075117E-1,6.086742878E-1,1.102792168E1
3.170559317E1,3.260220885E-1,6.708876491E-1,9.826724052E0
3.172530312E1,5.344967842E-1,1.135693431E0,9.337990761E0
3.174498062E1,4.866403043E-1,1.275673628E0,8.801400185E0
3.176469078E1,3.930211067E-1,1.231406331E0,8.691030502E0
3.178440338E1,4.256233275E-1,1.044467092E0,9.279366493E0
3.180412416E1,-1.109671518E-1,7.450651526E-1,9.020642281E0
3.182378062E1,-2.895315289E-1,7.163512707E-1,9.087641716E0
3.184351338E1,-9.780662507E-2,1.133300662E0,9.563215256E0
3.186320140E1,1.307079345E-1,1.415952802E0,9.421739578E0
3.188291052E1,3.810569942E-1,1.636391640E0,9.523733139E0
3.190262317E1,2.769692242E-1,1.597807288E0,9.634999275E0
3.192234338E1,2.482553422E-1,1.386042476E0,9.060123444E0
3.194202572E1,2.362912297E-1,1.164407372E0,8.781061172E0
3.196176833E1,2.135594189E-1,1.093819022E0,9.296115875E0
3.198143073E1,3.020938672E-2,8.338986635E-1,1.003489971E1
3.200112698E1,2.685943544E-1,7.881359458E-1,1.025055313E1
3.202085593E1,3.990031779E-1,8.350951076E-1,1.050209904E1
3.204057109E1,3.643072546E-1,8.685946465E-1,9.579964638E0
3.206027687E1,4.962115884E-1,1.214656591E0,9.172586441E0
3.207998494E1,5.368895531E-1,1.268495083E0,9.049356461E0
3.209970073E1,6.855437160E-1,1.480558991E0,8.794221878E0
3.211937750E1,6.915257573E-1,1.549950838E0,9.011071205E0
3.213911218E1,4.686941206E-1,1.839781523E0,9.937990189E0
3.215879390E1,2.697907388E-1,1.629213095E0,1.138504982E1
3.217849041E1,1.968096644E-1,1.563111424E0,1.186032486E1
3.219822625E1,5.413761362E-2,1.280459166E0,1.048893833E1
3.221793161E1,1.704886183E-2,1.245763302E0,9.001500130E0
3.223760869E1,5.084747914E-3,1.153639674E0,8.445766449E0
3.225730672E1,4.459623098E-1,1.134497046E0,8.825327873E0
3.227702385E1,6.134598851E-1,9.894321561E-1,9.759426117E0
3.229671948E1,4.495515525E-1,1.013360381E0,1.026132107E1
3.231641911E1,5.273182988E-1,1.081854939E0,1.060169983E1
3.233609224E1,8.015955687E-1,1.359721422E0,1.045663452E1
3.235579187E1,7.142575383E-1,1.479362607E0,9.455238342E0
3.237554260E1,4.483551383E-1,1.472184181E0,9.430113792E0
3.239526432E1,1.331007630E-1,1.236191988E0,9.005088806E0
3.241495682E1,2.195414752E-1,8.662018180E-1,8.215756416E0
3.243466906E1,1.537388563E-1,8.087740541E-1,8.318648338E0
3.245437156E1,-1.914258152E-1,8.024929166E-1,8.828917503E0
3.247408130E1,-1.890329868E-1,9.272187948E-1,1.017517948E1
3.249375546E1,1.645065546E-1,1.004985452E0,1.143410301E1
3.251347609E1,5.413761362E-2,1.022931695E0,1.075005436E1
3.253318229E1,8.673981763E-3,1.133300662E0,9.183354378E0
3.255288974E1,-1.645065658E-2,1.503290772E0,8.203792572E0
3.257259781E1,4.935196787E-2,1.622034669E0,7.559226036E0
3.259232203E1,1.800599098E-1,1.833799481E0,7.758129120E0
3.261198599E1,6.729813665E-2,1.781157374E0,8.836095810E0
3.263171739E1,-1.375873089E-1,1.570289850E0,1.035972595E1
3.265144474E1,-5.682953633E-3,1.313958764E0,1.174427223E1
3.267112322E1,2.494517565E-1,1.122532964E0,1.203769207E1
3.269081822E1,5.069792867E-1,1.071087241E0,1.141974640E1
3.271053583E1,6.867401004E-1,1.024128079E0,1.044108200E1
3.273027411E1,7.166503668E-1,9.690931439E-1,9.601499557E0
3.274994411E1,7.728816867E-1,8.889335990E-1,8.772686005E0
3.276964484E1,6.314060688E-1,8.207381964E-1,8.099405289E0
3.278934349E1,3.511467278E-1,9.690931439E-1,8.051548958E0
3.280906114E1,5.739783049E-1,1.274477124E0,9.030213356E0
3.282876510E1,6.493522525E-1,1.506880045E0,9.933204651E0
3.284845187E1,4.459623098E-1,1.596610904E0,1.015962601E1
3.286816932E1,2.279163599E-1,1.678265929E0,1.033220863E1
3.288790255E1,7.806584239E-2,1.597807288E0,1.034895802E1
3.290757713E1,2.039881349E-1,1.309173107E0,1.009262657E1
3.292728281E1,3.032902777E-1,1.043270707E0,1.050449181E1
3.294700192E1,1.956132501E-1,7.785646915E-1,1.046142101E1
3.296669552E1,3.667000830E-1,6.924230456E-1,9.939187050E0
3.298643354E1,5.237290859E-1,9.930213690E-1,9.501898766E0
3.300613510E1,6.373881102E-1,1.472184181E0,8.892327309E0
3.302583760E1,6.397809386E-1,1.896311998E0,9.019445419E0
3.304550875E1,5.009972453E-1,2.018345833E0,9.906884193E0
3.306520635E1,3.332005441E-1,1.672283888E0,9.904491425E0
3.308494369E1,3.056831062E-1,1.382453322E0,9.833903313E0
3.310463828E1,5.892325938E-2,1.111765265E0,9.542876244E0
3.312436401E1,1.645065546E-1,1.114158034E0,9.728319168E0
3.314405192E1,4.722833633E-1,1.303191066E0,1.048654556E1
3.316374656E1,4.064807594E-1,1.267298698E0,1.055234814E1
3.318346703E1,2.673979402E-1,1.269691467E0,9.802796364E0
3.320315078E1,-1.001994461E-1,1.311565876E0,9.308079720E0
3.322286547E1,-6.909275055E-2,1.243370414E0,8.667102814E0
3.324256776E1,-3.080759197E-2,1.212263823E0,8.802596092E0
3.326227437E1,-2.524427772E-1,1.157228827E0,9.495916367E0
3.328198416E1,-1.710868180E-1,1.232602715E0,1.055474091E1
3.330167510E1,-2.093719784E-3,1.300798178E0,1.173709393E1
3.332136552E1,7.686942816E-2,1.322333574E0,1.139821053E1
3.334110088E1,2.578266263E-1,1.392024517E0,1.023978519E1
3.336080880E1,2.087737769E-1,1.441077471E0,9.080462456E0
3.338051239E1,1.501496136E-1,1.240977645E0,7.577171803E0
3.340020078E1,2.446661144E-1,1.244566917E0,7.568797112E0
3.341991057E1,1.067797095E-1,1.215852976E0,8.668298721E0
3.343963104E1,1.345962752E-2,1.220638633E0,1.046022415E1
3.345932036E1,1.319043487E-1,1.251745343E0,1.210947704E1
3.347903192E1,1.307079345E-1,1.328315616E0,1.195035458E1
3.349874838E1,1.441675574E-1,1.509272933E0,1.030319500E1
3.351844057E1,1.357926875E-1,1.759621978E0,9.867402077E0
3.353814546E1,-6.879365072E-3,1.529611826E0,8.570193291E0
3.355785739E1,7.447660714E-2,1.479362607E0,7.784450054E0
3.357756463E1,-3.918246925E-2,1.345364571E0,8.613264084E0
3.359728703E1,-1.459621787E-1,1.341775298E0,9.439684868E0
3.361696307E1,-2.602194622E-2,1.309173107E0,1.064836025E1
3.363668182E1,1.091725305E-1,1.384846091E0,1.163988590E1
3.365637072E1,9.122636169E-2,1.443470240E0,1.052483082E1
3.367607505E1,3.858426586E-2,1.599003673E0,9.403793335E0
3.369578172E1,3.858426586E-2,1.496112347E0,8.993124962E0
3.371548463E1,1.106680464E-2,1.264905930E0,8.699405670E0
3.373518536E1,-7.507480681E-2,9.702895880E-1,9.215657234E0
3.375490250E1,-1.507478207E-1,8.685946465E-1,9.997811317E0
3.377461151E1,-1.061815023E-1,8.590233326E-1,1.048176003E1
3.379430869E1,6.849455088E-2,1.130907774E0,1.076560783E1
3.381401838E1,1.223330572E-1,1.374078393E0,1.044706345E1
3.383371906E1,1.283151209E-1,1.551147223E0,9.427721024E0
3.385341718E1,4.456632212E-2,1.588235974E0,8.561818123E0
3.387313692E1,-2.841476910E-2,1.583450437E0,8.184649467E0
3.389284224E1,-1.241276711E-1,1.433898926E0,8.405985832E0
3.391253937E1,-1.651047617E-1,1.451845169E0,9.268598557E0
3.393224854E1,-1.902294010E-1,1.352542996E0,9.995418549E0
3.395195260E1,3.619144112E-2,1.425524116E0,1.100399303E1
3.397163505E1,6.969095767E-2,1.317547917E0,1.129143143E1
3.399137547E1,-5.234299600E-2,1.232602715E0,1.064477062E1
3.401106578E1,-1.405783277E-2,1.078265667E0,9.921240807E0
3.403077224E1,3.379862010E-2,1.056431174E0,8.743971825E0
3.405047343E1,1.585244983E-1,1.079462171E0,8.504390717E0
3.407019333E1,2.578266263E-1,1.296012521E0,9.436096191E0
3.408991182E1,3.080759048E-1,1.304387450E0,9.939187050E0
3.410959661E1,6.254240274E-1,1.660319805E0,1.017517948E1
3.412929776E1,5.811567903E-1,1.797907114E0,1.043390274E1
3.414901265E1,4.112663865E-1,1.926222205E0,1.039083195E1
3.416871286E1,1.668993831E-1,1.558325768E0,9.197710991E0
3.418838880E1,1.429711580E-1,1.549950838E0,8.262416840E0
3.420811093E1,1.259222925E-1,1.443470240E0,8.324629784E0
3.422784317E1,7.477570791E-3,1.558325768E0,9.168996811E0
3.424752724E1,2.003988922E-1,1.515254974E0,1.086879826E1
3.426722911E1,2.087737769E-1,1.322333574E0,1.165334511E1
3.428694724E1,3.044866920E-1,1.095015407E0,1.069860935E1
3.430664635E1,1.645065546E-1,1.055234790E0,9.420542717E0
3.432630239E1,3.188436031E-1,1.232602715E0,8.669495583E0
3.434599817E1,4.830510616E-1,1.449452281E0,8.695816994E0
3.436578401E1,3.248256743E-1,1.264905930E0,9.011071205E0
3.438545989E1,1.740778536E-1,1.181157112E0,9.254241943E0
3.440517260E1,-4.995017126E-2,9.631111026E-1,9.975079536E0
3.442486786E1,-1.169492081E-1,8.721838593E-1,1.080867863E1
3.444458093E1,-1.286142133E-2,6.768696904E-1,9.985847473E0
3.446428109E1,4.097708687E-2,8.207381964E-1,9.627820969E0
3.448398682E1,1.453639716E-1,9.176474810E-1,8.892327309E0
3.450369640E1,3.200400174E-1,1.211067319E0,8.413164139E0
3.452340010E1,3.248256743E-1,1.498505235E0,9.003892899E0
3.454310557E1,3.272185028E-1,1.669891119E0,9.309276581E0
3.456282213E1,3.475574851E-1,1.733300924E0,9.588339806E0
3.458252922E1,1.668993831E-1,1.587039590E0,9.611071587E0
3.460223786E1,2.027917206E-1,1.484148264E0,8.901898384E0
3.462193229E1,2.063809484E-1,1.559522152E0,9.036195755E0
3.464163312E1,5.892325938E-2,1.675873160E0,1.036211872E1
3.466135411E1,-1.133599728E-1,1.322333574E0,1.031037331E1
3.468103416E1,-3.559323773E-2,1.224227905E0,1.056550884E1
3.470073822E1,5.054837838E-2,1.249352574E0,1.071416283E1
3.472044364E1,1.226321608E-2,1.282852054E0,1.036929703E1
3.474016026E1,3.236292601E-1,1.425524116E0,1.037168980E1
3.475986802E1,5.464608669E-1,1.487737536E0,9.366703987E0
3.477956172E1,5.057829022E-1,1.575075507E0,8.206185341E0
3.479927260E1,7.154539824E-1,1.862513304E0,8.974879265E0
3.481897041E1,3.726821244E-1,1.481755376E0,9.545269012E0
3.483867146E1,2.685943544E-1,1.238584876E0,1.001695347E1
3.485837349E1,1.453639716E-1,9.726824164E-1,1.039801121E1
3.487808906E1,4.456632212E-2,7.965108156E-1,1.048295593E1
3.489779718E1,3.104687333E-1,7.701897621E-1,1.073330498E1
3.491750489E1,3.080759048E-1,6.194419861E-1,9.952347755E0
3.493721156E1,5.416752100E-1,7.043871880E-1,8.310273170E0
3.495690583E1,6.110670567E-1,1.083051324E0,7.840681553E0
3.497660067E1,4.555336237E-1,1.263709426E0,7.432406425E0
3.499631802E1,3.559323549E-1,1.623231053E0,7.974978924E0
3.501605026E1,2.446661144E-1,1.722533226E0,9.530911446E0
3.503572463E1,1.621137410E-1,1.703390598E0,1.104826069E1
3.505543088E1,1.369891018E-1,1.503290772E0,1.285334587E1
3.507515322E1,1.429711580E-1,1.050449133E0,1.264487171E1
3.509483604E1,1.513460279E-1,7.295117974E-1,9.257830620E0
3.511454932E1,2.650051117E-1,8.566305041E-1,6.979564667E0
3.513426208E1,3.451646566E-1,1.158425212E0,6.259624004E0
3.515396333E1,3.571287692E-1,1.412363529E0,7.013063908E0
3.517366734E1,3.930211067E-1,1.675873160E0,8.880363464E0
3.519337422E1,1.477568001E-1,1.714158297E0,1.005553818E1
3.521307692E1,6.610172242E-2,1.806282043E0,1.152263737E1
3.523278588E1,2.506481707E-1,1.838585138E0,1.289641666E1
3.525248916E1,2.159522474E-1,1.680658817E0,1.162792206E1
3.527218974E1,2.542374134E-1,1.558325768E0,9.945169449E0
3.529191312E1,2.386840582E-1,1.255334616E0,8.674281120E0
3.531158343E1,3.367897868E-1,1.048056364E0,8.510373116E0
3.533128713E1,4.268197417E-1,8.001000881E-1,9.070891380E0
3.535103088E1,5.009972453E-1,8.001000881E-1,9.583553314E0
3.537071244E1,6.409773827E-1,9.116654396E-1,1.003609657E1
3.539042833E1,8.985049129E-1,1.194317579E0,9.451649666E0
3.541011880E1,1.051944613E0,1.418345571E0,8.482855797E0
3.542981010E1,9.382855892E-1,1.820638895E0,8.537890434E0
3.544953661E1,6.469594240E-1,1.700997829E0,8.799007416E0
3.546923531E1,6.002993584E-1,1.618445396E0,9.601499557E0
3.548894255E1,4.172484577E-1,1.306780219E0,1.040877819E1
3.550865093E1,1.271187067E-1,9.930213690E-1,1.082183933E1
3.552835885E1,1.752742529E-1,6.732804775E-1,1.154417324E1
3.554804869E1,3.200400174E-1,3.415754437E-1,1.080150032E1
3.556776505E1,5.536393523E-1,3.332005441E-1,8.615656853E0
3.558747755E1,8.015955687E-1,8.207381964E-1,7.259823799E0
3.560716989E1,8.925228715E-1,1.423131227E0,7.045367241E0
3.562689599E1,9.514461160E-1,1.954936147E0,7.978568077E0
3.564659703E1,8.003991842E-1,2.400300264E0,1.026610661E1
3.566628557E1,5.057829022E-1,2.152642965E0,1.087478065E1
3.568599151E1,8.045866340E-2,1.793121457E0,1.014287567E1
3.570572416E1,1.716850251E-1,1.653141379E0,9.572786331E0
3.572540474E1,4.435695112E-1,1.433898926E0,8.619246483E0
3.574511323E1,4.663013220E-1,1.336690545E0,8.665905952E0
3.576482109E1,4.663013220E-1,1.016949654E0,9.666106224E0
3.578451515E1,4.531407952E-1,6.637091637E-1,9.710372925E0
3.580423000E1,6.266204119E-1,6.541379094E-1,1.043509960E1
3.582393552E1,5.799604058E-1,5.440680385E-1,1.144247818E1
3.584365890E1,5.847460628E-1,5.727819204E-1,1.051884842E1
3.586332322E1,1.013659477E0,9.032905698E-1,9.384650230E0
3.588304536E1,1.133300662E0,1.077069283E0,8.035995483E0
3.590275948E1,1.219741344E0,1.427916884E0,7.231110096E0
3.592245666E1,1.073480010E0,1.368096352E0,7.746165276E0
3.594217698E1,1.031605721E0,1.339382529E0,8.297112465E0
3.596189781E1,9.382855892E-1,1.285244823E0,8.771489143E0
3.598157958E1,6.771687865E-1,1.468594909E0,9.599106789E0
3.600127692E1,5.656034350E-1,1.485344648E0,1.139342499E1
3.602097776E1,1.228116274E0,1.705783486E0,1.174905872E1
3.604069067E1,1.132104158E0,1.329512119E0,1.036929703E1
3.606038974E1,7.489534616E-1,1.111765265E0,9.488738060E0
3.608009281E1,5.691927075E-1,9.978070259E-1,9.185747147E0
3.609978958E1,8.195417523E-1,7.630113363E-1,8.831310272E0
3.611950536E1,7.166503668E-1,8.614161611E-1,9.511769295E0
3.613921411E1,6.421737671E-1,6.493522525E-1,9.524930000E0
3.615892255E1,7.202396393E-1,1.062413216E0,1.029840946E1
3.617861494E1,8.937192559E-1,1.307976723E0,1.083021450E1
3.619831994E1,8.985049129E-1,1.488933921E0,1.020149994E1
3.621800463E1,5.189434290E-1,1.362114310E0,1.018594646E1
3.623773916E1,2.362912297E-1,1.066002488E0,1.017158985E1
3.625743979E1,2.255235314E-1,7.977072597E-1,9.304491043E0
3.627716786E1,2.733799815E-1,1.020538807E0,9.208478928E0
3.629685281E1,3.583251834E-1,1.312762380E0,9.318847656E0
3.631655979E1,7.932206988E-1,1.559522152E0,9.266205788E0
3.633622343E1,1.173978567E0,1.752443433E0,8.927022934E0
3.635592416E1,1.185942769E0,1.714158297E0,7.941479206E0
3.637567114E1,5.823532343E-1,1.620838284E0,7.464709282E0
3.639537078E1,2.650051117E-1,1.601396561E0,8.429914474E0
3.641507896E1,3.116651475E-1,1.491326690E0,9.896116257E0
3.643476609E1,1.800599098E-1,1.298405409E0,1.145324516E1
3.645448937E1,-1.770688742E-1,8.913264275E-1,1.272024536E1
3.647419609E1,9.481559694E-2,6.469594240E-1,1.328704548E1
3.649390109E1,4.686941206E-1,5.967101455E-1,1.148076344E1
3.651361057E1,7.561319470E-1,7.989036441E-1,8.405985832E0
3.653331682E1,8.135597110E-1,1.231406331E0,7.408477783E0
3.655299364E1,6.337988973E-1,1.330708504E0,7.128218651E0
3.657271791E1,7.668996453E-1,1.532004714E0,7.577171803E0
3.659244364E1,7.322037220E-1,1.520040631E0,9.416953087E0
3.661212536E1,3.391826153E-1,1.263709426E0,1.082542896E1
3.663183849E1,7.208377868E-2,1.073480010E0,1.154417324E1
3.665151474E1,1.932204217E-1,1.000199914E0,1.135962677E1
3.667124244E1,2.183450609E-1,9.750752449E-1,1.004955578E1
3.669095072E1,3.523431420E-1,9.571290612E-1,9.869794846E0
3.671065234E1,3.224328458E-1,7.055835724E-1,9.179764748E0
3.673035380E1,2.709871531E-1,6.002993584E-1,7.843074322E0
3.675006265E1,3.080759048E-1,6.804589629E-1,7.432406425E0
3.676977505E1,3.236292601E-1,1.000199914E0,7.835896015E0
3.678946161E1,5.823532343E-1,1.493719578E0,8.708976746E0
3.680917218E1,7.956135273E-1,1.923829436E0,9.730711937E0
3.682887744E1,8.147560954E-1,2.217249393E0,1.050090218E1
3.684859692E1,4.698905349E-1,2.161017895E0,1.011416245E1
3.686828448E1,1.692921966E-1,2.073380709E0,9.272188187E0
3.688800422E1,1.151545867E-1,2.111665964E0,9.872187614E0
3.690770427E1,-7.507480681E-2,1.649552107E0,1.048176003E1
3.692741244E1,-2.799602449E-1,1.093819022E0,1.147837067E1
3.694711270E1,-2.321037948E-1,5.150550604E-1,1.099083233E1
3.696683619E1,-1.205384433E-1,1.785643846E-1,9.421739578E0
3.698652776E1,5.294119939E-2,1.582254022E-1,8.936594009E0
3.700623052E1,4.591228366E-1,3.607180119E-1,8.918647766E0
3.702593359E1,9.777671695E-1,7.821539044E-1,8.573782921E0
3.704565125E1,1.039980531E0,1.189531922E0,8.154440880E0
3.706534328E1,9.693922997E-1,1.636391640E0,8.142476082E0
3.708504578E1,9.933205247E-1,2.072184324E0,9.275776863E0
3.710476817E1,8.003991842E-1,2.116451740E0,9.591928482E0
3.712443567E1,4.387838542E-1,1.817049742E0,8.624032021E0
3.714416291E1,-3.134597540E-1,1.304387450E0,7.760521889E0
3.716386968E1,-2.285145670E-1,1.313958764E0,7.847859859E0
3.718357172E1,8.883354068E-2,1.229013562E0,9.632606506E0
3.720327885E1,-3.218346536E-1,7.235297561E-1,9.914062500E0
3.722299140E1,-3.996013701E-1,4.145565331E-1,9.005088806E0
3.724269172E1,-3.074777126E-1,2.889333367E-1,8.748757362E0
3.726237932E1,-2.608176768E-1,2.168495506E-1,8.077870369E0
3.728207922E1,-1.169492081E-1,5.751747489E-1,8.026424408E0
3.730180604E1,-6.191428751E-2,1.062413216E0,9.558428764E0
3.732150291E1,1.824527234E-1,1.377667665E0,1.032981491E1
3.734121078E1,3.320041299E-1,1.542772412E0,9.358329773E0
3.736092072E1,3.284149170E-1,1.486541033E0,7.974978924E0
3.738061317E1,2.913261652E-1,1.717747569E0,6.998707294E0
3.740032666E1,4.399802685E-1,1.887937069E0,6.750751019E0
3.742003078E1,3.798605800E-1,1.907079697E0,8.085048676E0
3.743971989E1,2.697907388E-1,1.479362607E0,1.083141041E1
3.745944135E1,-1.674975902E-1,7.223333120E-1,1.357567883E1
3.747915198E1,-5.530411601E-1,-1.100698411E-1,1.425823212E1
3.749884942E1,-6.475576162E-1,-7.363911867E-1,1.271067429E1
3.751855896E1,-6.104688644E-1,-7.674978375E-1,1.030199909E1
3.753826708E1,1.331007630E-1,-2.644068897E-1,7.742575645E0
3.755797672E1,6.014958024E-1,1.785643846E-1,5.892026424E0
3.757765500E1,6.110670567E-1,8.494520187E-1,5.148158073E0
3.759735625E1,4.088735580E-1,1.467398524E0,6.143572330E0
3.761708526E1,5.931209326E-1,2.513062000E0,7.979764462E0
3.763675656E1,6.014958024E-1,3.038884640E0,9.213264465E0
3.765649265E1,2.781656384E-2,3.206382275E0,9.996614456E0
3.767617031E1,-6.667001843E-1,3.083152056E0,1.138355446E1
3.769589567E1,-1.320838094E0,2.740679264E0,1.193719387E1
3.771559817E1,-1.943570137E0,1.777568102E0,1.097767162E1
3.773531802E1,-2.030010939E0,9.714859724E-1,1.011894798E1
3.775502000E1,-2.167598248E0,2.913261652E-1,9.905687332E0
3.777473494E1,-2.161616087E0,-1.830509305E-1,9.847063065E0
3.779442151E1,-1.943570137E0,-7.232306600E-1,1.063041401E1
3.781412474E1,-1.488634825E0,-9.149555564E-1,1.066152000E1
3.783383021E1,-6.607181430E-1,-7.220342159E-1,9.652945518E0
3.785355896E1,7.328019291E-2,-1.088734269E-1,8.714061737E0
3.787325104E1,5.512465239E-1,6.924230456E-1,8.816953659E0
3.789300500E1,1.062712312E0,1.436291814E0,9.837491989E0
3.791265010E1,1.181157112E0,1.815853238E0,1.115025425E1
3.793235859E1,1.786242127E0,1.789532185E0,1.175862980E1
3.795207760E1,1.392024517E0,1.607677698E0,1.111286640E1
3.797177302E1,7.477570772E-1,1.461416483E0,9.893723488E0
3.799146922E1,3.152543902E-1,1.215852976E0,8.778668404E0
3.801115578E1,-2.464607358E-1,9.523434043E-1,8.043173790E0
3.803089109E1,-5.554339290E-1,7.127620578E-1,7.349554539E0
3.805058875E1,-5.889334679E-1,9.379864931E-1,6.627520561E0
3.807028979E1,-7.758727670E-1,1.325922847E0,7.275377274E0
3.809000968E1,-9.544371367E-1,1.668694735E0,9.608678818E0
3.810972599E1,-1.143470168E0,1.630409479E0,1.290359497E1
3.812939968E1,-1.237089276E0,1.263709426E0,1.577827263E1
3.814910354E1,-1.653739572E0,7.187440991E-1,1.541187191E1
3.816881442E1,-1.645364642E0,4.576273263E-1,1.209990597E1
3.818853380E1,-1.350748420E0,8.087740541E-1,8.788239479E0
3.820822922E1,-7.902296782E-1,1.014556766E0,7.294519901E0
3.822793974E1,-2.081755698E-1,1.357328653E0,7.810771465E0
3.824762911E1,2.673979402E-1,1.217049360E0,8.778668404E0
3.826734625E1,7.513462901E-1,9.224331379E-1,9.504291534E0
3.828704442E1,1.032802105E0,7.295117974E-1,1.000379372E1
3.830674036E1,1.275972724E0,6.421737671E-1,1.033101177E1
3.832643099E1,1.372882009E0,7.666005492E-1,1.074407291E1
3.834613104E1,1.296311617E0,7.331010103E-1,1.082782173E1
3.836586786E1,1.016052365E0,8.398807645E-1,1.034177971E1
3.838557588E1,6.505486369E-1,9.212366939E-1,8.984749794E0
3.840528192E1,3.726821244E-1,1.121336460E0,8.210970879E0
3.842499156E1,1.357926875E-1,1.304387450E0,8.340183258E0
3.844469359E1,1.163510010E-1,1.518844128E0,8.903095245E0
3.846438760E1,-1.046859939E-2,1.715354681E0,1.037886810E1
3.848409161E1,-3.457628787E-1,1.570289850E0,1.208554935E1
3.850379869E1,-7.016952634E-1,1.309173107E0,1.158724403E1
3.852351135E1,-7.184450030E-1,1.226620674E0,1.000857925E1
3.854323698E1,-8.500502706E-1,1.195513964E0,8.912666321E0
3.856289338E1,-7.447660565E-1,1.145264745E0,8.667102814E0
3.858259437E1,-4.633102715E-1,9.032905698E-1,8.638388634E0
3.860232343E1,-3.194418252E-1,6.960122585E-1,9.109176636E0
3.862201989E1,-1.363908947E-1,4.755735099E-1,9.110373497E0
3.864172578E1,9.960123897E-2,6.349952817E-1,8.937790871E0
3.866142922E1,3.978067636E-1,8.626125455E-1,9.136693954E0
3.868112692E1,4.782654345E-1,1.275673628E0,9.503094673E0
3.870088364E1,3.499503136E-1,1.387238979E0,9.118747711E0
3.872054661E1,2.566302419E-1,1.647159338E0,8.373682976E0
3.874025088E1,1.211366430E-1,1.705783486E0,8.848059654E0
3.875995744E1,-1.926222295E-1,1.454237938E0,9.067302704E0
3.877966255E1,-2.141576260E-1,1.087836981E0,9.734301567E0
3.879937630E1,-4.274179339E-1,5.799604058E-1,1.071057320E1
3.881906869E1,-6.741777658E-1,7.208377868E-2,1.197069359E1
3.883877869E1,-6.717849374E-1,-4.202394783E-1,1.240170097E1
3.885847984E1,-8.141579032E-1,-5.617151260E-1,9.900901794E0
3.887821036E1,-4.716851711E-1,-1.076770201E-1,7.673183918E0
3.889790192E1,-1.459621787E-1,6.541379094E-1,7.357929707E0
3.891760135E1,4.695914313E-2,1.419542074E0,8.026424408E0
3.893730078E1,3.284149170E-1,1.928615093E0,9.268598557E0
3.895704239E1,4.758726060E-1,2.178964138E0,1.063759232E1
3.897672640E1,4.603192508E-1,2.165803671E0,1.207837009E1
3.899641333E1,3.607180119E-1,1.970489502E0,1.356850052E1
3.901613515E1,7.477570791E-3,1.499701619E0,1.350120258E1
3.903582187E1,-5.303093195E-1,9.092726111E-1,1.095972633E1
3.905553692E1,-3.409772217E-1,7.582256794E-1,8.971290588E0
3.907526026E1,-1.495514214E-1,7.295117974E-1,8.382058144E0
3.909495541E1,-1.037886813E-1,7.869395614E-1,8.894720078E0
3.911465067E1,-1.459621787E-1,6.134598851E-1,1.057507992E1
3.913437182E1,-1.073779166E-1,5.464608669E-1,1.116580772E1
3.915405531E1,-1.519442350E-1,7.175477147E-1,1.111914730E1
3.917376276E1,-3.732803464E-1,1.034895778E0,1.080867863E1
3.919347244E1,-5.877370834E-1,1.342971683E0,1.012732315E1
3.921317119E1,-7.268198729E-1,1.427916884E0,1.032742214E1
3.923289005E1,-8.823533654E-1,1.358525038E0,9.869794846E0
3.925256651E1,-1.060917735E0,1.266102314E0,8.977571487E0
3.927228677E1,-9.376873970E-1,1.233799219E0,8.960522652E0
3.929199234E1,-7.268198729E-1,1.182353497E0,8.863613129E0
3.931169390E1,-5.183451772E-1,1.123729348E0,8.730812073E0
3.933139922E1,-6.873382926E-1,9.774680734E-1,9.049356461E0
3.935112322E1,-5.482555032E-1,9.714859724E-1,1.015484047E1
3.937083812E1,-6.355935335E-1,8.853443861E-1,1.004955578E1
3.939051630E1,-6.451647878E-1,1.087836981E0,9.712766647E0
3.941024369E1,-5.853442550E-1,1.368096352E0,1.012373352E1
3.942992151E1,-5.195416212E-1,1.595414519E0,1.027448177E1
3.944963729E1,-4.142574072E-1,1.728515267E0,1.089033413E1
3.946934130E1,-3.397808075E-1,1.522433400E0,1.122562790E1
3.948902885E1,-2.285145670E-1,1.133300662E0,9.517750740E0
3.950874807E1,-1.531406492E-1,1.072283626E0,9.177371979E0
3.952845156E1,-1.229312643E-1,9.068797827E-1,9.939187050E0
3.954814614E1,1.872383654E-1,7.558328509E-1,1.005075264E1
3.956785776E1,4.217349738E-2,5.234299302E-1,9.870991707E0
3.958756307E1,-3.062812984E-1,4.636093974E-1,9.170193672E0
3.960727302E1,-1.998006850E-1,6.469594240E-1,8.525926590E0
3.962696494E1,-1.639083475E-1,9.846464992E-1,8.417949677E0
3.964666828E1,-2.309073806E-1,1.203888893E0,9.624231339E0
3.966638500E1,-3.744767308E-1,1.175175071E0,1.066989517E1
3.968610036E1,-5.350949764E-1,1.024128079E0,1.114427280E1
3.970579781E1,-7.914260626E-1,7.522436380E-1,1.140897846E1
3.972550359E1,-9.604191780E-1,5.691927075E-1,1.032622623E1
3.974521146E1,-8.656035662E-1,5.584250093E-1,8.500801086E0
3.976493760E1,-6.212365627E-1,7.474579811E-1,7.349554539E0
3.978461552E1,-3.254238665E-1,1.144068360E0,7.929515362E0
3.980433380E1,-2.392822653E-1,1.400399446E0,9.334401131E0
3.982403328E1,-2.440679073E-1,1.492523074E0,1.102313614E1
3.984374072E1,-4.094717801E-1,1.374078393E0,1.259462166E1
3.986343869E1,-4.716851711E-1,1.280459166E0,1.249532032E1
3.988314401E1,-3.924229145E-1,1.276870012E0,1.147358418E1
3.990285078E1,-4.334000051E-1,1.282852054E0,1.004327488E1
3.992252906E1,-2.596212626E-1,1.384846091E0,9.754640579E0
3.994225958E1,-3.050848842E-1,1.209870934E0,8.887541771E0
3.996197401E1,-4.334000051E-1,1.066002488E0,7.797610760E0
3.998166297E1,-4.597210586E-1,1.008574724E0,7.305287361E0
4.000136401E1,-3.625126183E-1,1.231406331E0,6.532704830E0
4.002106510E1,-2.500499785E-1,1.709372640E0,7.180860519E0
4.004078625E1,-3.026920557E-1,2.129612207E0,1.009980488E1
4.006048442E1,-5.973083377E-1,1.974078655E0,1.310967731E1
4.008018942E1,-1.099202871E0,1.238584876E0,1.427378559E1
4.009989687E1,-1.418943882E0,3.403790295E-1,1.182203960E1
4.011959781E1,-1.390229940E0,-8.853443712E-2,8.647959709E0
4.013930140E1,-1.446461320E0,-3.735794425E-1,6.987939358E0
4.015901307E1,-1.440479279E0,-5.928218365E-1,6.580860615E0
4.017870552E1,-1.255035520E0,-6.095715761E-1,7.183253765E0
4.019844146E1,-1.178166032E0,-4.597210586E-1,7.767700672E0
4.021811172E1,-9.026923180E-1,-1.280160099E-1,8.004889488E0
4.023782073E1,-5.638088584E-1,5.270192027E-1,8.373682976E0
4.025753489E1,-3.397808075E-1,1.213460207E0,9.486345291E0
4.027722849E1,-2.129612118E-1,1.659123421E0,1.148674488E1
4.029697010E1,-5.353940651E-2,1.916650891E0,1.385474205E1
4.031667041E1,-1.962114573E-1,1.747657895E0,1.516630840E1
4.033634338E1,-9.242277741E-1,1.274477124E0,1.379103374E1
4.035604651E1,-1.222732425E0,9.020941257E-1,1.137757301E1
4.037576583E1,-1.444068432E0,6.230311990E-1,1.015842915E1
4.039545890E1,-1.422533035E0,4.588237405E-1,9.553643227E0
4.041519744E1,-1.234696507E0,4.803591371E-1,9.711569786E0
4.043487510E1,-9.520443082E-1,8.614161611E-1,1.048295593E1
4.045457260E1,-5.805585980E-1,1.372882009E0,1.120887852E1
4.047428000E1,-2.057827413E-1,1.970489502E0,1.147837067E1
4.049399547E1,-1.109671518E-1,2.568096876E0,1.158126163E1
4.051370822E1,4.456632212E-2,2.912962437E0,1.185194969E1
4.053338802E1,1.405783296E-1,2.856731176E0,1.251805210E1
4.055309583E1,-3.912265003E-1,2.241177559E0,1.176820087E1
4.057279838E1,-1.044167995E0,1.578664780E0,1.040997505E1
4.059252057E1,-1.155434251E0,1.066002488E0,9.364311218E0
4.061223838E1,-9.206385016E-1,6.768696904E-1,8.317451477E0
4.063192468E1,-7.686942816E-1,2.527419031E-1,8.162815094E0
4.065161698E1,-5.482555032E-1,-1.184447184E-1,8.273183823E0
4.067133463E1,-6.487540603E-1,-3.472583890E-1,8.572586060E0
4.069103151E1,-4.106681943E-1,-5.099703074E-1,9.171390533E0
4.071074437E1,-2.871387303E-1,-2.970091105E-1,9.437292099E0
4.073044234E1,-3.481557071E-1,4.695914313E-2,9.426525116E0
4.075014599E1,-2.153540403E-1,4.743770957E-1,9.088837624E0
4.076985047E1,-2.512463629E-1,9.451649189E-1,9.257830620E0
4.078955135E1,-5.697908998E-1,1.272084355E0,9.538089752E0
4.080925104E1,-9.170492887E-1,1.421934843E0,1.035972595E1
4.082895557E1,-1.324427366E0,1.358525038E0,1.092502975E1
4.084868672E1,-1.917249203E0,1.268495083E0,1.013569736E1
4.086837948E1,-2.160419703E0,1.276870012E0,9.923633575E0
4.088810635E1,-2.390429735E0,1.327119231E0,9.993025780E0
4.090778072E1,-2.126920223E0,1.407577872E0,1.030678463E1
4.092748963E1,-1.963909149E0,1.431506157E0,1.127228832E1
4.094719067E1,-1.810768485E0,1.185942769E0,1.172632694E1
4.096689557E1,-1.660917997E0,1.074676514E0,1.156331539E1
4.098660213E1,-1.819143414E0,9.068797827E-1,1.137996578E1
4.100630682E1,-1.645364642E0,8.243274093E-1,1.077159023E1
4.102601276E1,-1.402194023E0,8.012964725E-1,1.007826996E1
4.104573307E1,-1.639382601E0,8.446664214E-1,9.718748093E0
