"Time (s)","Acceleration x (m/s^2)","Acceleration y (m/s^2)","Acceleration z (m/s^2)"
0.000000000E0,4.689932466E-1,6.898507595E0,8.628518105E0
0.000000000E0,0.000000000E0,7.161718369E0,7.625925541E0
0.000000000E0,3.732803464E-1,6.865008354E0,6.628118515E0
0.000000000E0,6.939185411E-2,7.453642368E0,6.625725746E0
0.000000000E0,1.244267747E-1,7.070790768E0,6.431907177E0
0.000000000E0,-1.244267747E-1,7.453642368E0,6.951149940E0
0.000000000E0,6.221338734E-2,7.010970116E0,6.704689026E0
0.000000000E0,-9.092725813E-2,7.417750359E0,6.465406895E0
0.000000000E0,-3.349951655E-2,7.259823799E0,6.046662807E0
0.000000000E0,5.742774159E-2,7.539783955E0,6.264409542E0
0.000000000E0,1.172483116E-1,7.314858913E0,6.020341873E0
0.000000000E0,-5.264209956E-2,7.479963779E0,5.876772404E0
0.000000000E0,-3.230310678E-1,7.458428383E0,5.821737289E0
0.000000000E0,1.244267747E-1,7.484749317E0,6.070590973E0
0.000000000E0,-8.614161611E-2,7.582854748E0,5.929414749E0
0.000000000E0,6.699903309E-2,7.506284714E0,5.910272121E0
0.000000000E0,-1.531406492E-1,7.757531166E0,5.955735683E0
0.000000000E0,2.368894368E-1,7.343572617E0,5.759523869E0
0.000000000E0,1.674975827E-2,7.733603001E0,6.003592014E0
0.000000000E0,3.708875179E-1,7.379465103E0,6.008377552E0
0.000000000E0,2.488535494E-1,7.743174076E0,6.211767673E0
0.000000000E0,3.397808075E-1,7.118647575E0,5.790630817E0
0.000000000E0,1.196411345E-2,7.637889862E0,5.895915031E0
0.000000000E0,4.307080805E-1,7.123433113E0,5.852844238E0
0.000000000E0,1.986042857E-1,7.747959614E0,5.996413708E0
0.000000000E0,2.560320199E-1,7.298109055E0,5.570491314E0
0.000000000E0,9.571290575E-3,7.850851059E0,5.895915031E0
0.000000000E0,2.440679073E-1,7.329215527E0,5.785845280E0
0.000000000E0,1.387837082E-1,7.764709473E0,6.065805435E0
0.000000000E0,1.387837082E-1,7.420143127E0,5.781059742E0
0.000000000E0,1.076770201E-1,7.874779224E0,6.269195557E0
0.000000000E0,3.565305769E-1,7.276573658E0,6.089733601E0
0.000000000E0,1.962114573E-1,7.623532772E0,6.242874146E0
0.000000000E0,1.268195957E-1,7.355536938E0,6.003592014E0
0.000000000E0,1.411765367E-1,7.771887779E0,6.515655994E0
0.000000000E0,1.579262912E-1,7.379465103E0,6.118447304E0
0.000000000E0,1.770688742E-1,7.623532772E0,6.130411625E0
0.000000000E0,1.100698411E-1,7.446464062E0,5.742774487E0
0.000000000E0,8.614161611E-2,7.740781307E0,6.305087566E0
0.000000000E0,3.062812984E-1,7.446464062E0,6.022734642E0
0.000000000E0,1.028913707E-1,7.642675400E0,5.876772404E0
0.000000000E0,4.785645287E-3,7.671389580E0,5.687739372E0
0.000000000E0,3.158525825E-1,7.628318787E0,6.223731518E0
0.000000000E0,1.507478207E-1,7.372286797E0,5.170889854E0
0.000000000E0,4.618147612E-1,7.652246952E0,3.814159393E0
0.000000000E0,-1.363908947E-1,8.032705307E0,6.910471916E0
0.000000000E0,-5.575276613E-1,6.659225464E0,9.741181374E0
0.000000000E0,-2.823530734E-1,7.453642368E0,7.221538544E0
0.000000000E0,9.571290761E-2,7.630711555E0,6.486942291E0
0.000000000E0,2.536391914E-1,7.688138962E0,5.759523869E0
0.000000000E0,1.100698411E-1,7.520641804E0,6.326622963E0
0.000000000E0,4.307080805E-2,7.570890903E0,6.003592014E0
0.000000000E0,-1.220339537E-1,7.554141045E0,5.931807518E0
0.000000000E0,-8.135596663E-2,7.661818027E0,5.383851051E0
0.000000000E0,1.483550072E-1,7.640282631E0,5.871986866E0
0.000000000E0,1.818545163E-1,7.542177200E0,5.910272121E0
0.000000000E0,1.220339537E-1,7.628318787E0,5.697310925E0
0.000000000E0,1.244267747E-1,7.862815380E0,5.414957523E0
0.000000000E0,1.004985496E-1,7.867600918E0,5.663811207E0
0.000000000E0,-5.024927482E-2,7.922635555E0,5.639883041E0
0.000000000E0,-1.052841991E-1,7.743174076E0,5.580062389E0
0.000000000E0,-1.363908947E-1,7.925028801E0,5.601597786E0
0.000000000E0,6.221338734E-2,7.740781307E0,5.273781300E0
0.000000000E0,5.742774159E-2,7.874779224E0,5.505885124E0
0.000000000E0,3.589234129E-2,7.762316704E0,5.687739372E0
0.000000000E0,4.067798331E-2,7.984848976E0,5.917450428E0
0.000000000E0,3.349951655E-2,7.582854748E0,5.639883041E0
0.000000000E0,-8.374879509E-2,7.802994728E0,5.843272686E0
0.000000000E0,2.871387079E-2,7.702496052E0,5.606383324E0
0.000000000E0,-4.307080805E-2,8.092526436E0,5.680561066E0
0.000000000E0,5.742774159E-2,7.630711555E0,5.462814331E0
0.000000000E0,-4.307080805E-2,7.855636597E0,5.855237007E0
0.000000000E0,-1.052841991E-1,7.654639721E0,5.637490273E0
0.000000000E0,-2.392822690E-2,7.874779224E0,6.166304111E0
0.000000000E0,-9.332008660E-2,7.506284714E0,5.644668579E0
0.000000000E0,-1.674975827E-2,7.927421570E0,5.802595139E0
0.000000000E0,-6.939185411E-2,7.171289444E0,5.560919762E0
0.000000000E0,8.853443712E-2,7.575676441E0,5.529813290E0
0.000000000E0,-2.273181528E-1,7.355536938E0,5.257031441E0
0.000000000E0,2.153540403E-2,7.554141045E0,6.118447304E0
0.000000000E0,-1.674975827E-2,7.609176159E0,5.240281582E0
0.000000000E0,-7.178468257E-2,7.489534855E0,5.876772404E0
0.000000000E0,-2.584248483E-1,7.350750923E0,5.197210789E0
0.000000000E0,-1.028913707E-1,7.566105366E0,5.852844238E0
0.000000000E0,-1.531406492E-1,7.484749317E0,5.436492920E0
0.000000000E0,-6.221338734E-2,7.479963779E0,5.520241737E0
0.000000000E0,-2.392822653E-1,7.597211838E0,5.213960648E0
0.000000000E0,8.853443712E-2,7.573283672E0,5.857629776E0
0.000000000E0,-1.196411327E-1,7.750352383E0,5.630311489E0
0.000000000E0,5.742774159E-2,7.822137356E0,5.606383324E0
0.000000000E0,9.571290575E-3,8.044670105E0,5.769095421E0
0.000000000E0,7.178468257E-2,7.925028801E0,5.288137913E0
0.000000000E0,1.196411327E-1,7.980063438E0,5.682953835E0
0.000000000E0,1.076770201E-1,7.898707390E0,5.807380676E0
0.000000000E0,7.178468257E-2,8.018348694E0,5.934200287E0
0.000000000E0,2.632104978E-2,7.762316704E0,5.455635548E0
0.000000000E0,1.698904037E-1,7.810173035E0,5.749952793E0
0.000000000E0,1.220339537E-1,7.743174076E0,5.419743061E0
0.000000000E0,1.459621787E-1,7.872386456E0,6.051448345E0
0.000000000E0,1.292124242E-1,7.673782349E0,5.460421085E0
0.000000000E0,9.332008660E-2,7.838887215E0,5.840879917E0
0.000000000E0,2.679961324E-1,7.570890903E0,5.419743061E0
0.000000000E0,5.264209956E-2,7.652246952E0,5.953342915E0
0.000000000E0,7.896314561E-2,7.439285755E0,5.309673309E0
0.000000000E0,8.374879509E-2,7.633104324E0,5.919843197E0
0.000000000E0,1.579262912E-1,7.530212879E0,5.405386448E0
0.000000000E0,1.435693540E-2,7.530212879E0,5.855237007E0
0.000000000E0,-8.614161611E-2,7.467999458E0,5.123033047E0
0.000000000E0,-1.435693540E-2,7.601997375E0,5.814558983E0
0.000000000E0,-5.024927482E-2,7.537391186E0,5.450850010E0
0.000000000E0,-3.349951655E-2,7.551748276E0,5.465207100E0
0.000000000E0,-1.459621787E-1,7.654639721E0,5.292923450E0
0.000000000E0,1.914258115E-2,7.649854183E0,5.800201893E0
0.000000000E0,-7.657032460E-2,7.879564762E0,5.623133183E0
0.000000000E0,2.392822690E-2,7.891529083E0,5.757131100E0
0.000000000E0,-4.785645381E-2,8.121239662E0,5.893522263E0
0.000000000E0,2.392822644E-3,7.891529083E0,5.419743061E0
0.000000000E0,-3.110669367E-2,7.948956966E0,5.702096462E0
0.000000000E0,9.571290761E-2,7.822137356E0,5.544169903E0
0.000000000E0,4.785645381E-2,7.927421570E0,5.962913990E0
0.000000000E0,8.614161611E-2,7.716853142E0,5.503491879E0
0.000000000E0,5.264209956E-2,7.791030407E0,5.816951752E0
0.000000000E0,1.770688742E-1,7.657032490E0,5.321637630E0
0.000000000E0,9.571290761E-2,7.740781307E0,5.888736725E0
0.000000000E0,1.914258115E-2,7.549355507E0,5.280959606E0
0.000000000E0,9.571290575E-3,7.618747234E0,5.924628735E0
0.000000000E0,9.332008660E-2,7.475177765E0,5.429314613E0
0.000000000E0,-5.742774159E-2,7.506284714E0,5.680561066E0
0.000000000E0,-8.374879509E-2,7.434499741E0,5.233103275E0
0.000000000E0,-8.853443712E-2,7.666603565E0,6.020341873E0
0.000000000E0,-6.460621208E-2,7.645068169E0,5.647061348E0
0.000000000E0,-1.387837082E-1,7.738388538E0,5.620740414E0
0.000000000E0,-1.339980662E-1,7.848458290E0,5.625525951E0
0.000000000E0,-7.178467698E-3,7.831708431E0,6.063412666E0
0.000000000E0,-5.742774159E-2,7.896314621E0,5.711667538E0
0.000000000E0,1.196411345E-2,7.860422611E0,5.800201893E0
0.000000000E0,-6.460621208E-2,8.035098076E0,5.800201893E0
0.000000000E0,1.674975827E-2,7.841279984E0,5.539384365E0
0.000000000E0,-1.435693540E-2,7.963313580E0,5.752345562E0
0.000000000E0,1.124626622E-1,7.929814339E0,5.848058701E0
0.000000000E0,4.307080805E-2,8.090133667E0,5.881557941E0
0.000000000E0,5.503492057E-2,7.807780266E0,5.410171986E0
0.000000000E0,-1.914258115E-2,7.898707390E0,5.697310925E0
0.000000000E0,6.939185411E-2,7.747959614E0,5.388636589E0
0.000000000E0,4.546362907E-2,7.788637638E0,6.005984783E0
0.000000000E0,9.571290575E-3,7.573283672E0,5.422136307E0
0.000000000E0,8.614161611E-2,7.738388538E0,5.857629776E0
0.000000000E0,9.092725813E-2,7.580461979E0,5.278566837E0
0.000000000E0,4.546362907E-2,7.534998417E0,5.733202934E0
0.000000000E0,-1.316052526E-1,7.439285755E0,5.149354458E0
0.000000000E0,-4.785645287E-3,7.563712597E0,5.876772404E0
0.000000000E0,2.632104978E-2,7.537391186E0,5.410171986E0
0.000000000E0,-9.571290575E-3,7.508677483E0,5.458028316E0
0.000000000E0,-7.896314561E-2,7.678567886E0,5.402993679E0
0.000000000E0,4.067798331E-2,7.666603565E0,5.804987907E0
0.000000000E0,-2.392822644E-3,7.913064480E0,5.663811207E0
0.000000000E0,7.178468257E-2,7.963313580E0,5.814558983E0
0.000000000E0,-3.349951655E-2,8.219346046E0,5.809773445E0
0.000000000E0,9.571290761E-2,7.927421570E0,5.467599869E0
0.000000000E0,3.828516230E-2,7.980063438E0,5.783452511E0
0.000000000E0,1.555334777E-1,7.903493404E0,5.678168297E0
0.000000000E0,1.316052526E-1,7.970492363E0,6.199803352E0
0.000000000E0,9.332008660E-2,7.740781307E0,5.584847927E0
0.000000000E0,1.172483116E-1,7.800601959E0,5.924628735E0
0.000000000E0,1.722832322E-1,7.649854183E0,5.383851051E0
0.000000000E0,5.024927482E-2,7.561319351E0,5.785845280E0
0.000000000E0,-1.363908947E-1,7.489534855E0,5.120640278E0
0.000000000E0,-5.742774159E-2,7.618747234E0,5.950950146E0
0.000000000E0,-3.589234129E-2,7.625925541E0,5.477170944E0
0.000000000E0,3.110669367E-2,7.582854748E0,5.431707382E0
0.000000000E0,-2.392822644E-3,7.731209755E0,5.407779217E0
0.000000000E0,9.810572863E-2,7.688138962E0,5.702096462E0
0.000000000E0,3.589234129E-2,7.814958572E0,5.642275810E0
0.000000000E0,4.785645381E-2,7.841279984E0,5.790630817E0
0.000000000E0,-3.589234129E-2,8.092526436E0,5.795416355E0
0.000000000E0,7.896314561E-2,7.881958008E0,5.460421085E0
0.000000000E0,-1.196411345E-2,7.996813297E0,5.771488190E0
0.000000000E0,1.076770201E-1,7.881958008E0,5.718846321E0
0.000000000E0,6.460621208E-2,7.996813297E0,6.214160442E0
0.000000000E0,1.028913707E-1,7.719245911E0,5.587240696E0
0.000000000E0,5.024927482E-2,7.805387497E0,5.970092297E0
0.000000000E0,1.196411327E-1,7.609176159E0,5.359922886E0
0.000000000E0,2.392822644E-3,7.592426300E0,5.778666496E0
0.000000000E0,-1.722832322E-1,7.518248558E0,5.206781864E0
0.000000000E0,-9.332008660E-2,7.719245911E0,6.082555294E0
0.000000000E0,-1.196411345E-2,7.673782349E0,5.656632900E0
0.000000000E0,2.871387079E-2,7.637889862E0,5.630311489E0
0.000000000E0,-8.135596663E-2,7.676175117E0,5.414957523E0
0.000000000E0,1.196411345E-2,7.685746193E0,6.041877270E0
0.000000000E0,-4.067798331E-2,7.668996811E0,5.647061348E0
0.000000000E0,1.435693540E-2,7.726424217E0,5.661418438E0
0.000000000E0,-9.092725813E-2,7.913064480E0,5.740381718E0
0.000000000E0,7.417750359E-2,7.834101200E0,5.879165173E0
0.000000000E0,-1.196411345E-2,7.944170952E0,5.788238049E0
0.000000000E0,1.459621787E-1,7.936992645E0,5.840879917E0
0.000000000E0,-7.178468257E-2,8.149953842E0,5.819344521E0
0.000000000E0,1.196411327E-1,7.891529083E0,5.400600910E0
0.000000000E0,3.349951655E-2,7.977670670E0,5.757131100E0
0.000000000E0,2.153540403E-1,7.800601959E0,5.398207664E0
0.000000000E0,6.699903309E-2,7.771887779E0,6.226124287E0
8.600639000E-3,8.135596663E-2,7.700103283E0,5.668596745E0
2.941362800E-2,4.546362907E-2,7.525427341E0,5.331208706E0
5.025713300E-2,-2.632104978E-2,7.613961697E0,5.678168297E0
7.107012200E-2,-9.810572863E-2,7.544569969E0,5.175675392E0
9.190871100E-2,-1.914258115E-2,7.685746193E0,6.027520180E0
1.127522170E-1,-5.982056633E-2,7.594819069E0,5.615954876E0
1.335957230E-1,-1.674975827E-2,7.592426300E0,5.548955917E0
1.544087110E-1,-4.546362907E-2,7.764709473E0,5.680561066E0
1.752216990E-1,1.124626622E-1,7.716853142E0,5.819344521E0
1.960652050E-1,2.871387079E-2,7.922635555E0,5.821737289E0
2.168781930E-1,1.172483116E-1,7.987242222E0,5.881557941E0
2.376911820E-1,5.264209956E-2,8.161917686E0,6.008377552E0
2.585346880E-1,1.028913707E-1,7.905886173E0,5.580062389E0
2.793476760E-1,-7.178467698E-3,7.927421570E0,5.910272121E0
3.001606640E-1,1.124626622E-1,7.697710514E0,5.443671703E0
3.210041700E-1,2.153540403E-2,7.635497093E0,5.922235966E0
3.418171580E-1,-2.081755698E-1,7.489534855E0,5.194818020E0
3.626606640E-1,-1.866401732E-1,7.640282631E0,5.759523869E0
3.834736520E-1,-1.627119333E-1,7.716853142E0,5.419743061E0
4.042866410E-1,-1.268195957E-1,7.735995770E0,5.362315655E0
4.251301470E-1,-1.196411327E-1,8.027919769E0,5.608776093E0
4.459431350E-1,9.571290575E-3,7.855636597E0,5.357530117E0
4.667561230E-1,8.853443712E-2,7.869993687E0,5.642275810E0
4.875691110E-1,1.100698411E-1,7.779066563E0,5.611168861E0
5.084126170E-1,9.332008660E-2,7.841279984E0,5.821737289E0
5.292256060E-1,-9.571290575E-3,7.590033531E0,5.424529076E0
5.500385940E-1,8.374879509E-2,7.733603001E0,5.850451469E0
5.708515820E-1,1.603191197E-1,7.633104324E0,5.393422127E0
5.916645700E-1,4.067798331E-2,7.740781307E0,5.994020939E0
6.125080760E-1,4.067798331E-2,7.616354465E0,5.352744102E0
6.333210650E-1,-3.589234129E-2,7.726424217E0,5.898307800E0
6.541645700E-1,2.584248483E-1,7.518248558E0,5.383851051E0
6.749775590E-1,-2.727817893E-1,7.487142086E0,5.532206059E0
6.957905470E-1,2.153540403E-2,7.542177200E0,5.087141037E0
7.166340530E-1,7.178468257E-2,7.585247993E0,5.843272686E0
7.374470410E-1,5.024927482E-2,7.798209190E0,5.651846886E0
7.582600290E-1,1.746760458E-1,7.898707390E0,5.692524910E0
7.790730180E-1,-1.076770201E-1,8.166703224E0,5.922235966E0
7.998860060E-1,1.555334777E-1,8.023134232E0,5.527420521E0
8.207295120E-1,-5.264209956E-2,8.097311974E0,5.905486107E0
8.415425000E-1,1.818545163E-1,7.989634991E0,5.857629776E0
8.623554880E-1,7.178467698E-3,8.135597229E0,6.350551128E0
8.831684770E-1,7.178468257E-2,7.829315662E0,5.711667538E0
9.039814650E-1,5.024927482E-2,7.781459332E0,6.015556335E0
9.247944530E-1,7.896314561E-2,7.590033531E0,5.276174068E0
9.456074420E-1,-2.871387079E-2,7.410571575E0,5.450850010E0
9.664204300E-1,-4.785645381E-2,7.412964344E0,5.106283665E0
9.872334180E-1,3.828516230E-2,7.556533813E0,5.721239090E0
1.008046406E0,1.076770201E-1,7.776673794E0,5.702096462E0
1.028859395E0,1.076770201E-1,7.855636597E0,5.845665932E0
1.049672383E0,1.914258115E-2,8.075776100E0,5.814558983E0
1.070485371E0,4.307080805E-2,7.838887215E0,5.367101192E0
1.091298359E0,4.785645287E-3,7.874779224E0,5.764309883E0
1.112141865E0,6.939185411E-2,7.836493969E0,5.642275810E0
1.132954854E0,-5.264209956E-2,7.980063438E0,6.230910301E0
1.153767842E0,-9.571290575E-3,7.802994728E0,5.761917114E0
1.174580830E0,-1.196411345E-2,7.936992645E0,6.046662807E0
1.195393818E0,1.746760458E-1,7.726424217E0,5.563312531E0
1.216237324E0,-6.221338734E-2,7.719245911E0,6.080162525E0
1.237050313E0,-7.178468257E-2,7.527820110E0,5.225924492E0
1.257893818E0,-2.153540403E-2,7.575676441E0,5.927021503E0
1.278706807E0,9.571290575E-3,7.448856831E0,5.312066078E0
1.299519795E0,-8.135596663E-2,7.367500782E0,5.414957523E0
1.320332783E0,7.896314561E-2,7.286144733E0,5.376672268E0
1.341145772E0,-5.982056633E-2,5.984449387E0,3.821337700E0
1.361958760E0,-1.962114573E-1,7.032505512E0,4.457828522E0
1.382771748E0,-8.853443712E-2,8.209774017E0,5.946164131E0
1.403584736E0,-1.531406492E-1,8.776873589E0,5.759523869E0
1.424428242E0,-7.896314561E-2,8.190631866E0,5.883950710E0
1.445241231E0,-6.939185411E-2,7.716853142E0,5.426921844E0
1.466054219E0,1.387837082E-1,7.783852100E0,5.647061348E0
1.486867207E0,-1.698904037E-1,8.078168869E0,5.781059742E0
1.507680195E0,7.896314561E-2,7.812565804E0,5.479563713E0
1.528493184E0,-2.392822690E-2,7.951349735E0,5.730810165E0
1.549336690E0,1.770688742E-1,7.759923935E0,5.455635548E0
1.570149678E0,-5.024927482E-2,7.980063438E0,6.104090691E0
1.590962666E0,1.100698411E-1,7.740781307E0,5.443671703E0
1.611806172E0,9.571290575E-3,7.755138397E0,5.690132141E0
1.632619160E0,2.177468538E-1,7.611568928E0,5.276174068E0
1.653432149E0,5.264209956E-2,7.673782349E0,5.903093338E0
1.674275654E0,-7.178467698E-3,7.475177765E0,5.362315655E0
1.695088643E0,2.201396823E-1,7.628318787E0,5.769095421E0
1.715901631E0,7.896314561E-2,7.549355507E0,5.223531723E0
1.736714619E0,1.555334777E-1,7.587640762E0,5.934200287E0
1.757558125E0,-5.742774159E-2,7.369893551E0,5.108676434E0
1.778371113E0,1.220339537E-1,7.494320393E0,5.788238049E0
1.799184102E0,5.024927482E-2,7.398607731E0,5.235496044E0
1.819997090E0,-1.435693540E-2,7.420143127E0,5.462814331E0
1.840840596E0,-3.110669367E-2,7.415357590E0,5.101497650E0
1.861653584E0,3.828516230E-2,7.558926582E0,5.910272121E0
1.882466572E0,4.785645287E-3,7.616354465E0,5.481956482E0
1.903279561E0,1.914258115E-2,7.738388538E0,5.522634506E0
1.924092549E0,2.392822690E-2,7.915457249E0,5.603990555E0
1.944905537E0,1.459621787E-1,7.925028801E0,5.670989513E0
1.965749043E0,1.196411327E-1,8.020741463E0,5.802595139E0
1.986562031E0,1.363908947E-1,8.059026718E0,5.974878311E0
2.007375020E0,3.110669367E-2,8.243273735E0,5.938985825E0
2.028188008E0,2.392822690E-2,8.015955925E0,5.472385406E0
2.049031514E0,1.674975827E-2,8.035098076E0,5.788238049E0
2.069844502E0,1.028913707E-1,7.970492363E0,5.910272121E0
2.090657490E0,-7.178468257E-2,8.109275818E0,5.946164131E0
2.111470479E0,4.785645287E-3,7.855636597E0,5.441278458E0
2.132313984E0,-1.674975827E-2,7.915457249E0,5.766702652E0
2.153126973E0,1.124626622E-1,7.834101200E0,5.546562672E0
2.173939961E0,7.178467698E-3,7.936992645E0,6.056233883E0
2.194752949E0,2.632104978E-2,7.678567886E0,5.572884083E0
2.215565938E0,8.614161611E-2,7.767102242E0,5.972485542E0
2.236378926E0,9.571290761E-2,7.594819069E0,5.300102234E0
2.257222432E0,-4.307080805E-2,7.566105366E0,5.742774487E0
2.278035420E0,-1.555334777E-1,7.441678524E0,5.032105923E0
2.298848408E0,-1.435693651E-1,7.606783390E0,5.833701611E0
2.319661397E0,-4.307080805E-2,7.542177200E0,5.381458282E0
2.340474385E0,-9.092725813E-2,7.539783955E0,5.563312531E0
2.361317891E0,-1.531406492E-1,7.599604607E0,5.225924492E0
2.382130879E0,1.435693540E-2,7.649854183E0,5.972485542E0
2.402943867E0,-8.614161611E-2,7.755138397E0,5.666203976E0
2.423756856E0,-6.221338734E-2,7.779066563E0,5.548955917E0
2.444569844E0,-6.939185411E-2,7.965706348E0,5.735595703E0
2.465382832E0,-4.546362907E-2,7.884350777E0,5.455635548E0
2.486195820E0,2.392822690E-2,8.032705307E0,5.802595139E0
2.507039326E0,7.896314561E-2,8.011170387E0,6.013163090E0
2.527852315E0,-4.307080805E-2,8.178668022E0,5.984449387E0
2.548665303E0,-4.067798331E-2,7.905886173E0,5.417350292E0
2.569478291E0,-7.178467698E-3,7.908278942E0,5.735595703E0
2.590291279E0,1.172483116E-1,7.826922894E0,5.419743061E0
2.611134785E0,-2.153540403E-2,7.941778183E0,6.032305717E0
2.631947774E0,1.172483116E-1,7.668996811E0,5.704489231E0
2.652760762E0,7.824530005E-1,7.305287361E0,5.790630817E0
2.673604268E0,-1.488335729E0,6.922435760E0,4.704289436E0
2.694417256E0,1.452443361E0,6.709474564E0,5.053641319E0
2.715230244E0,-1.172483087E0,7.769495010E0,5.891129494E0
2.736043233E0,-6.652047038E-1,8.707481384E0,6.381658077E0
2.756856221E0,1.531406492E-1,8.408378601E0,5.860022545E0
2.777669209E0,1.674975827E-2,7.977670670E0,6.281159401E0
2.798512715E0,3.038884699E-1,8.501698494E0,5.515456200E0
2.819325703E0,-8.231309652E-1,8.178668022E0,5.520241737E0
2.840138692E0,1.292124242E-1,8.102097511E0,6.159125328E0
2.860951680E0,2.177468538E-1,8.291130066E0,6.149554253E0
2.881764668E0,-1.746760458E-1,8.461020470E0,6.472585201E0
2.902608174E0,2.153540403E-1,7.951349735E0,5.943771362E0
2.923421162E0,-9.810572863E-2,7.896314621E0,6.151947021E0
2.944234150E0,4.187439680E-1,7.625925541E0,5.749952793E0
2.965077656E0,-1.866401732E-1,7.623532772E0,6.230910301E0
2.985890645E0,-1.076770201E-1,7.506284714E0,5.197210789E0
3.006703633E0,5.264209956E-2,7.554141045E0,5.934200287E0
3.027516621E0,2.153540403E-2,7.456035137E0,5.371886730E0
3.048329609E0,2.632104978E-2,7.537391186E0,5.247459888E0
3.069142598E0,-8.135597110E-1,7.460821152E0,4.845465660E0
3.089986104E0,3.708875179E-1,7.288537979E0,5.651846886E0
3.110799092E0,-4.689932466E-1,7.499105930E0,5.503491879E0
3.131612080E0,-1.746760458E-1,7.707281590E0,5.242674351E0
3.152455586E0,-1.148554832E-1,7.843672752E0,5.362315655E0
3.173268574E0,1.459621787E-1,7.869993687E0,5.584847927E0
3.194081563E0,2.703889608E-1,8.070990562E0,5.536991596E0
3.214925068E0,-2.440679073E-1,7.996813297E0,5.912664890E0
3.235738057E0,2.632104978E-2,8.102097511E0,6.190232277E0
3.256551045E0,-1.268195957E-1,7.948956966E0,5.723631859E0
3.277394551E0,-4.067798331E-2,7.996813297E0,5.922235966E0
3.298207539E0,1.268195957E-1,7.829315662E0,5.601597786E0
3.319020527E0,-9.332008660E-2,7.831708431E0,6.161518097E0
3.339864033E0,5.503492057E-2,7.561319351E0,5.477170944E0
3.360677022E0,-2.273181528E-1,7.604390144E0,5.910272121E0
3.381490010E0,2.225325108E-1,7.554141045E0,5.503491879E0
3.402302998E0,4.785645381E-2,7.673782349E0,5.599205017E0
3.423115986E0,-2.105683982E-1,7.329215527E0,4.773681164E0
3.443928975E0,8.614161611E-2,7.475177765E0,5.879165173E0
3.464772481E0,-5.742774159E-2,7.767102242E0,5.350351334E0
3.485585469E0,1.148554832E-1,7.472784996E0,5.539384365E0
3.506428975E0,-1.268195957E-1,7.568498135E0,5.405386448E0
3.527241963E0,1.962114573E-1,8.250452042E0,5.682953835E0
3.548054951E0,3.134597540E-1,8.350951195E0,5.297709465E0
3.568867940E0,1.124626622E-1,8.169096947E0,5.508277893E0
3.589680928E0,1.794617027E-1,8.233702660E0,5.101497650E0
3.610524434E0,8.853443712E-2,7.893921852E0,5.276174068E0
3.631337422E0,3.900300860E-1,7.970492363E0,5.812166214E0
3.652150410E0,4.713860750E-1,8.147561073E0,5.603990555E0
3.672963399E0,4.785645306E-1,8.049455643E0,6.132804394E0
3.693776387E0,5.910272002E-1,7.779066563E0,5.410171986E0
3.714589375E0,3.732803464E-1,7.776673794E0,5.814558983E0
3.735402363E0,4.211367965E-1,7.398607731E0,5.424529076E0
3.756215352E0,3.684946895E-1,7.355536938E0,5.694917679E0
3.777058858E0,2.344966233E-1,7.401000500E0,5.056034088E0
3.797871846E0,4.426721931E-1,7.482356548E0,5.682953835E0
3.818684834E0,3.278166950E-1,7.585247993E0,5.379065514E0
3.839497822E0,4.761717021E-1,7.570890903E0,5.462814331E0
3.860310811E0,4.043870270E-1,7.719245911E0,5.793023586E0
3.881123799E0,3.637090325E-1,7.788637638E0,5.249852657E0
3.901936787E0,5.264210105E-1,7.903493404E0,5.740381718E0
3.922749775E0,4.809573591E-1,7.712067604E0,5.639883041E0
3.943562764E0,3.804588020E-1,7.826922894E0,6.082555294E0
3.964406270E0,1.531406492E-1,7.881958008E0,5.388636589E0
3.985219258E0,4.522434771E-1,7.929814339E0,6.037091732E0
4.006032246E0,3.756731451E-1,7.642675400E0,5.300102234E0
4.026845234E0,-6.221338734E-2,7.599604607E0,5.261816978E0
4.047658223E0,3.421736360E-1,7.374679565E0,4.804787636E0
4.068501729E0,-3.206382394E-1,7.724031448E0,5.627918720E0
4.089314717E0,3.613162339E-1,7.714460373E0,5.271388054E0
4.110127705E0,-1.627119333E-1,7.683353424E0,5.608776093E0
4.130940693E0,1.698904037E-1,7.640282631E0,5.350351334E0
4.151753682E0,2.177468538E-1,7.800601959E0,5.809773445E0
4.172566670E0,9.332008660E-2,7.960920811E0,5.484349728E0
4.193410176E0,1.986042857E-1,8.245666504E0,5.431707382E0
4.214223164E0,1.172483116E-1,8.360522270E0,6.257231236E0
4.235036152E0,1.244267747E-1,8.025527000E0,5.733202934E0
4.255849141E0,2.679961324E-1,7.958528042E0,5.804987907E0
4.276692647E0,5.742774606E-1,7.965706348E0,5.465207100E0
4.297505635E0,6.723831892E-1,8.233702660E0,7.173682213E0
4.318318623E0,5.312066078E-1,8.322237015E0,6.281159401E0
4.339131611E0,3.996013701E-1,7.898707390E0,4.448257446E0
4.359975117E0,8.638089895E-1,7.398607731E0,5.077569485E0
4.380788106E0,1.220339537E-1,7.207181931E0,4.675575256E0
4.401601094E0,3.780659735E-1,7.970492363E0,5.611168861E0
4.422414082E0,-4.307080805E-2,8.786444664E0,6.242874146E0
4.443227070E0,9.786644578E-1,8.027919769E0,5.790630817E0
4.464070576E0,2.488535494E-1,8.618947029E0,6.041877270E0
4.484883565E0,7.154539824E-1,8.372486115E0,6.068198204E0
4.505696553E0,5.599204898E-1,7.247859955E0,6.903293133E0
4.526509541E0,-4.402793646E-1,7.446464062E0,4.024727821E0
4.547322529E0,3.445664644E-1,8.147561073E0,4.467400074E0
4.568166035E0,-1.411765367E-1,8.877371788E0,7.290930748E0
4.588979024E0,8.374879509E-2,8.465806961E0,6.400800705E0
4.609792012E0,4.546363056E-1,7.601997375E0,5.132604599E0
4.630605000E0,2.153540403E-2,6.723831654E0,5.527420521E0
4.651417988E0,4.450650215E-1,7.633104324E0,4.359723091E0
4.672230977E0,-7.896314561E-2,8.800801277E0,6.888936520E0
4.693074483E0,1.914258152E-1,8.599804878E0,6.386443615E0
4.713887471E0,1.986042857E-1,6.989434719E0,5.156532764E0
4.734700459E0,-8.853443712E-2,7.410571575E0,4.007977962E0
4.755513447E0,3.780659735E-1,8.724231720E0,7.176074982E0
4.776326436E0,-1.483550072E-1,7.755138397E0,4.922036171E0
4.797139424E0,2.632104978E-2,7.068397999E0,5.144568920E0
4.817952412E0,2.943171859E-1,8.712266922E0,7.389036179E0
4.838795918E0,9.332008660E-2,8.327022552E0,5.137390137E0
4.859608906E0,6.221338734E-2,7.362715244E0,5.371886730E0
4.880421895E0,2.249253243E-1,7.960920811E0,6.549155712E0
4.901234883E0,3.014956415E-1,7.668996811E0,4.785645485E0
4.922078389E0,1.076770201E-1,7.350750923E0,4.752145767E0
4.942891377E0,3.373879790E-1,7.812565804E0,6.008377552E0
4.963704365E0,2.440679073E-1,7.623532772E0,5.077569485E0
4.984547871E0,2.775674164E-1,7.922635555E0,5.106283665E0
5.005360859E0,3.397808075E-1,7.987242222E0,5.297709465E0
5.026173848E0,2.033899277E-1,7.692924976E0,5.197210789E0
5.046986836E0,3.062812984E-1,7.817351341E0,5.984449387E0
5.067799824E0,1.818545163E-1,7.728816986E0,5.697310925E0
5.088612813E0,3.038884699E-1,7.881958008E0,6.324230194E0
5.109425801E0,2.488535494E-1,7.917850018E0,5.517848969E0
5.130269307E0,3.852444589E-1,7.975277901E0,5.950950146E0
5.151082295E0,3.589234054E-1,7.834101200E0,5.525027275E0
5.171895283E0,3.565305769E-1,7.917850018E0,6.003592014E0
5.192738789E0,2.775674164E-1,7.714460373E0,5.395814896E0
5.213551777E0,2.321037948E-1,7.716853142E0,5.426921844E0
5.234364766E0,3.326023519E-1,7.692924976E0,5.249852657E0
5.255177754E0,3.110669367E-2,7.977670670E0,5.367101192E0
5.275990742E0,2.775674164E-1,7.865208149E0,5.266602516E0
5.296803731E0,2.177468538E-1,7.994420528E0,5.766702652E0
5.317616719E0,2.608176768E-1,7.908278942E0,5.393422127E0
5.338460225E0,1.244267747E-1,8.073383331E0,6.137589931E0
5.359273213E0,2.033899277E-1,7.824530125E0,5.594419479E0
5.380086201E0,1.770688742E-1,7.925028801E0,5.874379635E0
5.400899190E0,4.043870270E-1,7.534998417E0,5.249852657E0
5.421742695E0,1.268195957E-1,7.716853142E0,5.898307800E0
5.442555684E0,2.632105052E-1,7.757531166E0,5.237888813E0
5.463368672E0,2.249253243E-1,7.791030407E0,5.922235966E0
5.484181660E0,2.440679073E-1,7.566105366E0,5.288137913E0
5.504994649E0,1.962114573E-1,7.520641804E0,5.331208706E0
5.525838154E0,2.751746178E-1,7.410571575E0,4.953142643E0
5.546651143E0,2.919243574E-1,7.415357590E0,5.417350292E0
5.567464131E0,4.139583111E-1,7.707281590E0,5.381458282E0
5.588277119E0,3.756731451E-1,7.826922894E0,5.577669621E0
5.609090108E0,4.187439680E-1,7.893921852E0,5.505885124E0
5.629933613E0,2.919243574E-1,7.872386456E0,5.099104881E0
5.650746602E0,3.589234054E-1,8.102097511E0,5.802595139E0
5.671559590E0,3.708875179E-1,8.011170387E0,5.553741455E0
5.692372578E0,2.488535494E-1,7.934599876E0,6.099305153E0
5.713185567E0,1.842473447E-1,7.752745152E0,5.498706341E0
5.733998555E0,-2.153540403E-2,7.759923935E0,6.005984783E0
5.754811543E0,2.775674164E-1,7.604390144E0,5.321637630E0
5.775655049E0,4.067798331E-2,7.611568928E0,5.764309883E0
5.796468037E0,3.302095234E-1,7.609176159E0,5.333601475E0
5.817281025E0,3.756731451E-1,7.680960655E0,5.642275810E0
5.838094014E0,6.532405615E-1,7.829315662E0,5.462814331E0
5.858907002E0,8.997012973E-1,7.817351341E0,5.771488190E0
5.879719990E0,5.790630579E-1,7.776673794E0,5.486742496E0
5.900563496E0,6.125625968E-1,7.389036179E0,5.163711071E0
5.921376484E0,9.332008660E-2,7.197610378E0,6.228517532E0
5.942181603E0,7.417750359E-2,6.915257454E0,6.396014690E0
5.962994591E0,-5.814558864E-1,7.228717327E0,7.037291527E0
5.983807579E0,-7.944171429E-1,7.513463020E0,6.087340832E0
6.004620568E0,-3.900300860E-1,7.599604607E0,5.620740414E0
6.025464073E0,-6.269195080E-1,7.489534855E0,5.958128452E0
6.046277062E0,-1.064806104E0,8.190631866E0,5.857629776E0
6.067090050E0,-9.308080077E-1,8.427521706E0,5.812166214E0
6.087903038E0,-1.229910851E0,8.059026718E0,5.790630817E0
6.108716027E0,-3.134597540E-1,8.178668022E0,4.929214478E0
6.129559532E0,-1.103091240E0,7.946564198E0,5.852844238E0
6.150372521E0,-4.737788737E-1,7.805387497E0,5.965306759E0
6.171185509E0,-1.229910851E0,7.578069210E0,5.996413708E0
6.191998497E0,-6.029912829E-1,7.599604607E0,6.070590973E0
6.212842003E0,-4.426721931E-1,7.353144169E0,5.726024628E0
6.233654991E0,-5.766702294E-1,7.714460373E0,6.070590973E0
6.254467980E0,2.177468538E-1,7.975277901E0,5.388636589E0
6.275280968E0,-3.326023519E-1,7.886743546E0,6.118447304E0
6.296093956E0,5.647061467E-1,7.781459332E0,5.000999451E0
6.316906945E0,4.785645381E-2,7.592426300E0,5.656632900E0
6.337719933E0,7.489534616E-1,7.491927624E0,4.867001057E0
6.358532921E0,2.775674164E-1,7.518248558E0,4.630111694E0
6.379376427E0,6.819544435E-1,7.757531166E0,5.072783947E0
6.400189415E0,7.633104324E-1,7.884350777E0,5.489135265E0
6.421002404E0,7.513462901E-1,8.317451477E0,5.290530682E0
6.441815392E0,1.079162955E0,8.257631302E0,4.642076015E0
6.462628380E0,9.116654396E-1,8.394021988E0,5.051248550E0
6.483441368E0,1.155733347E0,8.252845764E0,4.737788677E0
6.504254357E0,7.848458290E-1,8.176275253E0,5.407779217E0
6.525067345E0,7.585247755E-1,8.023134232E0,4.972285271E0
6.545880333E0,5.503492355E-1,8.336593628E0,5.362315655E0
6.566723839E0,9.547362328E-1,8.020741463E0,5.144568920E0
6.587536827E0,7.561319470E-1,8.051848412E0,5.422136307E0
6.608349816E0,1.131805062E0,7.963313580E0,4.577469826E0
6.629162804E0,8.327022791E-1,7.759923935E0,5.056034088E0
6.649975792E0,1.155733347E0,7.530212879E0,4.259224415E0
6.670819298E0,4.833501875E-1,7.783852100E0,4.677968502E0
6.691632286E0,7.752745152E-1,7.802994728E0,4.304687977E0
6.712445275E0,1.100698411E-1,7.903493404E0,5.166104317E0
6.733288780E0,1.770688742E-1,7.874779224E0,4.342973232E0
6.754101769E0,1.674975902E-1,7.755138397E0,5.309673309E0
6.774914757E0,8.590233326E-1,7.398607731E0,4.582255363E0
6.795758263E0,-1.746760458E-1,7.807780266E0,4.115654945E0
6.816571251E0,1.167697430E0,7.566105366E0,4.737788677E0
6.837384239E0,6.532405615E-1,8.018348694E0,6.092126369E0
6.858197228E0,3.182454109E-1,8.157132149E0,5.314459324E0
6.879040734E0,1.158126116E0,8.331808090E0,5.417350292E0
6.899853722E0,2.249253243E-1,8.523234367E0,5.793023586E0
6.920666710E0,1.119840980E0,8.705088615E0,4.876572609E0
6.941479698E0,5.288137794E-1,8.635697365E0,5.345565796E0
6.962323204E0,5.910272002E-1,8.664410591E0,4.331008911E0
6.983136193E0,3.469592929E-1,8.092526436E0,5.264209747E0
7.003949181E0,-3.924229145E-1,7.826922894E0,5.158925533E0
7.024762169E0,4.331009090E-1,7.850851059E0,4.843072891E0
7.045575157E0,-5.240281820E-1,7.824530125E0,5.218746185E0
7.066388146E0,2.297109663E-1,8.126026154E0,5.967699528E0
7.087231652E0,-3.708875179E-1,8.561519623E0,5.558526993E0
7.108044640E0,-1.674975827E-2,8.501698494E0,5.673382282E0
7.128857628E0,3.948157430E-1,8.338987350E0,5.271388054E0
7.149670616E0,-1.938186288E-1,8.097311974E0,4.692325115E0
7.170483605E0,6.771687865E-1,8.066205025E0,5.213960648E0
7.191296593E0,2.368894368E-1,8.049455643E0,5.541777134E0
7.212109581E0,9.308080077E-1,7.901100159E0,5.656632900E0
7.232922570E0,5.407779217E-1,7.527820110E0,5.271388054E0
7.253735558E0,7.824530005E-1,7.666603565E0,5.618347645E0
7.274548546E0,1.045663476E0,7.807780266E0,5.326423168E0
7.295392052E0,9.834501147E-1,7.996813297E0,5.869594097E0
7.316205040E0,1.225125194E0,7.960920811E0,4.862215519E0
7.337018029E0,9.762716293E-1,8.047062874E0,5.264209747E0
7.357831017E0,1.289731383E0,7.862815380E0,4.709074974E0
7.378644005E0,1.026520967E0,7.996813297E0,5.278566837E0
7.399456993E0,9.858429432E-1,7.750352383E0,4.536791801E0
7.420269982E0,6.532405615E-1,7.795815945E0,5.285745144E0
7.441113488E0,7.058826685E-1,7.647460938E0,4.783252239E0
7.461926476E0,4.307080805E-1,7.724031448E0,5.163711071E0
7.482739464E0,5.910272002E-1,7.786244869E0,4.792823792E0
7.503552452E0,4.522434771E-1,7.893921852E0,5.326423168E0
7.524395958E0,5.934200287E-1,7.738388538E0,4.867001057E0
7.545208947E0,4.426721931E-1,7.755138397E0,4.986642361E0
7.566021935E0,4.905286431E-1,7.982456207E0,5.036891460E0
7.586834923E0,4.235295951E-1,7.913064480E0,4.926821709E0
7.607647911E0,7.752745152E-1,8.013563156E0,5.218746185E0
7.628460900E0,5.527420044E-1,8.042277336E0,5.749952793E0
7.649273888E0,6.245267391E-1,8.267202377E0,5.292923450E0
7.670117394E0,6.628118753E-1,8.037490845E0,5.324030399E0
7.690930382E0,1.062413216E0,8.135597229E0,5.737988472E0
7.711743370E0,9.786644578E-1,8.248059273E0,5.063212872E0
7.732586876E0,1.028913736E0,8.166703224E0,5.295316696E0
7.753399864E0,9.547362328E-1,7.905886173E0,4.493721008E0
7.774212853E0,8.949156404E-1,7.783852100E0,4.457828522E0
7.795025841E0,1.138983607E0,8.104490280E0,4.761716843E0
7.815838829E0,7.010970116E-1,8.243273735E0,4.922036171E0
7.836682335E0,1.155733347E0,8.099704742E0,5.347958565E0
7.857495323E0,8.087740541E-1,8.102097511E0,4.941178799E0
7.878308312E0,1.021735311E0,7.869993687E0,5.170889854E0
7.899121300E0,9.738788009E-1,7.726424217E0,5.450850010E0
7.919934288E0,7.704889178E-1,7.874779224E0,4.816751957E0
7.940747277E0,1.057627559E0,7.575676441E0,5.175675392E0
7.961590782E0,1.110269666E0,7.664210796E0,5.398207664E0
7.982403771E0,8.638089895E-1,8.240880966E0,4.912465096E0
8.003216759E0,5.431707501E-1,7.824530125E0,5.223531723E0
8.024029747E0,4.331009090E-1,7.728816986E0,5.453242779E0
8.044842736E0,3.014956415E-1,8.142775536E0,5.204389095E0
8.065655724E0,1.459621787E-1,7.838887215E0,5.434100151E0
8.086468712E0,2.536391914E-1,7.726424217E0,5.434100151E0
8.107281700E0,6.293123364E-1,7.860422611E0,5.290530682E0
8.128125206E0,4.666004181E-1,7.922635555E0,5.458028316E0
8.148938195E0,5.814558864E-1,7.951349735E0,5.429314613E0
8.169751183E0,2.249253243E-1,7.635497093E0,5.544169903E0
8.190564171E0,1.890329868E-1,7.494320393E0,5.843272686E0
8.211377159E0,-1.627119333E-1,7.508677483E0,6.008377552E0
8.232190148E0,-5.312066078E-1,7.659425259E0,5.953342915E0
8.253003136E0,-3.493520916E-1,7.688138962E0,5.654240131E0
8.273816124E0,-3.110669553E-1,7.802994728E0,5.594419479E0
8.294659630E0,-3.828516230E-2,7.929814339E0,5.505885124E0
8.315472618E0,-5.503492057E-2,8.121239662E0,5.364708424E0
8.336285607E0,-2.081755698E-1,8.133204460E0,5.206781864E0
8.357098595E0,-9.571290761E-2,8.051848412E0,5.273781300E0
8.377911583E0,-1.483550072E-1,8.027919769E0,5.647061348E0
8.398724572E0,1.938186288E-1,8.035098076E0,5.199603558E0
8.419537560E0,-5.982056633E-2,8.118846893E0,5.419743061E0
8.440381066E0,1.555334777E-1,7.992027760E0,5.170889854E0
8.461194054E0,2.009970993E-1,7.920242786E0,5.472385406E0
8.482007042E0,2.057827413E-1,7.953742504E0,5.343173027E0
8.502820030E0,3.684946895E-1,7.834101200E0,5.448457241E0
8.523633019E0,2.751746178E-1,7.788637638E0,5.479563713E0
8.544446007E0,4.881358147E-1,7.896314621E0,5.350351334E0
8.565258995E0,4.713860750E-1,7.901100159E0,5.448457241E0
8.586071984E0,4.618147612E-1,7.903493404E0,5.362315655E0
8.606915489E0,3.254238665E-1,7.927421570E0,5.381458282E0
8.627728478E0,3.038884699E-1,7.963313580E0,5.422136307E0
8.648510948E0,3.421736360E-1,8.044670105E0,5.359922886E0
8.669354454E0,3.302095234E-1,7.951349735E0,5.247459888E0
8.690167443E0,5.072783828E-1,7.805387497E0,5.151747227E0
8.710980431E0,4.235295951E-1,7.733603001E0,4.936393261E0
8.731793419E0,5.551348329E-1,7.673782349E0,4.706682205E0
8.752636925E0,7.082754970E-1,7.932207108E0,5.254638672E0
8.773449913E0,7.968099117E-1,8.121239662E0,5.338387489E0
8.794293419E0,8.997012973E-1,7.989634991E0,5.379065514E0
8.815106407E0,6.508477330E-1,7.776673794E0,5.357530117E0
8.835919396E0,7.345965505E-1,7.721638680E0,5.328815937E0
8.856732384E0,4.761717021E-1,7.762316704E0,5.513063431E0
8.877545372E0,3.972085714E-1,7.714460373E0,5.627918720E0
8.898388878E0,2.751746178E-1,7.558926582E0,5.565705299E0
8.919201866E0,4.546362907E-2,7.537391186E0,5.178068161E0
8.940014855E0,1.938186288E-1,7.558926582E0,5.213960648E0
8.960858361E0,-2.153540403E-1,7.389036179E0,5.307280540E0
8.981671349E0,-5.048855543E-1,7.551748276E0,5.532206059E0
9.002484337E0,-3.732803464E-1,7.800601959E0,5.984449387E0
9.023297325E0,-4.307080805E-1,8.171489716E0,5.946164131E0
9.044140831E0,-2.632105052E-1,8.439485550E0,5.735595703E0
9.064953820E0,-2.608176768E-1,8.446663857E0,5.362315655E0
9.085766808E0,-4.043870270E-1,8.489734650E0,5.699703693E0
9.106610314E0,-6.245267391E-1,9.087940216E0,6.101697922E0
9.127423302E0,-3.326023519E-1,9.145368576E0,6.149554253E0
9.148236290E0,-1.411765367E-1,8.930013657E0,6.132804394E0
9.169079796E0,9.571290575E-3,8.465806961E0,5.398207664E0
9.189892784E0,6.460621208E-2,7.829315662E0,5.625525951E0
9.210705773E0,-7.178468257E-2,7.692924976E0,5.879165173E0
9.231518761E0,2.368894368E-1,7.580461979E0,5.175675392E0
9.252331749E0,-1.674975827E-2,7.417750359E0,5.702096462E0
9.273175255E0,4.474578202E-1,7.604390144E0,5.386243820E0
9.293988243E0,-6.460621208E-2,7.551748276E0,5.905486107E0
9.314801232E0,-9.092725813E-2,7.606783390E0,5.312066078E0
9.335614220E0,4.043870270E-1,7.288537979E0,4.931607246E0
9.356427208E0,-1.148554832E-1,7.491927624E0,5.187639713E0
9.377240197E0,-9.810572863E-2,7.841279984E0,4.957928658E0
9.398053185E0,-7.585247755E-1,7.977670670E0,5.065605640E0
9.418866173E0,2.368894368E-1,7.956135273E0,4.558327198E0
9.439679161E0,-2.392822653E-1,7.963313580E0,4.610969067E0
9.460522667E0,-2.129612118E-1,7.941778183E0,4.809573650E0
9.481335655E0,-1.124626622E-1,7.721638680E0,4.498506546E0
9.502148644E0,-8.135596663E-2,7.350750923E0,5.089533806E0
9.522961632E0,4.139583111E-1,7.810173035E0,5.103890896E0
9.543774620E0,9.571290761E-2,8.338987350E0,5.297709465E0
9.564618126E0,4.307080805E-1,8.066205025E0,5.491528034E0
9.585431114E0,5.551348329E-1,7.858029366E0,5.000999451E0
9.606244103E0,1.124626622E-1,7.925028801E0,5.060820103E0
9.627057091E0,2.775674164E-1,7.721638680E0,5.627918720E0
9.647900597E0,5.503492057E-2,7.838887215E0,5.529813290E0
9.668713585E0,3.062812984E-1,7.917850018E0,5.319244862E0
9.689526573E0,2.560320199E-1,7.920242786E0,5.398207664E0
9.710339562E0,1.818545163E-1,7.872386456E0,5.228317261E0
9.731183068E0,3.397808075E-1,7.601997375E0,5.331208706E0
9.751996056E0,3.014956415E-1,7.546962738E0,5.513063431E0
9.772809044E0,5.742774606E-1,7.762316704E0,5.486742496E0
9.793622032E0,5.024927258E-1,7.752745152E0,5.632704735E0
9.814435021E0,5.479564071E-1,7.716853142E0,5.541777134E0
9.835278527E0,6.077769399E-1,7.726424217E0,5.510670662E0
9.856091515E0,5.000999570E-1,7.659425259E0,5.558526993E0
9.876904503E0,6.747759581E-1,7.735995770E0,5.536991596E0
9.897717491E0,5.096712112E-1,7.798209190E0,5.414957523E0
9.918530480E0,5.383850932E-1,7.762316704E0,5.402993679E0
9.939373986E0,7.345965505E-1,7.637889862E0,5.333601475E0
9.960186974E0,8.063812256E-1,7.530212879E0,5.300102234E0
9.981030480E0,8.781659007E-1,7.594819069E0,5.158925533E0
1.000184347E1,8.231309652E-1,7.683353424E0,5.213960648E0
1.002265646E1,7.489534616E-1,7.810173035E0,5.206781864E0
1.004346945E1,8.279166222E-1,7.970492363E0,6.113661766E0
1.006428243E1,3.445664644E-1,7.910671711E0,5.106283665E0
1.008509542E1,9.571290761E-2,8.472985268E0,4.890929699E0
1.010590841E1,6.005984545E-1,7.968099594E0,5.077569485E0
1.012672140E1,8.135596663E-2,7.946564198E0,6.991827965E0
1.014756490E1,2.105683982E-1,7.891529083E0,3.737588882E0
1.016837789E1,-1.124626622E-1,6.932007313E0,4.019941807E0
1.018919088E1,2.033899277E-1,6.656832695E0,3.290131092E0
1.021000387E1,-4.713860750E-1,8.963513374E0,4.354937077E0
1.023081686E1,3.158525825E-1,1.062173939E1,8.542376518E0
1.025166036E1,5.072783828E-1,1.023888779E1,9.499505997E0
1.027247335E1,7.752745152E-1,6.989434719E0,6.350551128E0
1.029328634E1,1.265803218E0,6.491727829E0,6.135197163E0
1.031409933E1,8.901300430E-1,6.620940208E0,6.570691109E0
1.033494283E1,1.497906923E0,7.180860519E0,7.604390144E0
1.035575582E1,1.337587833E0,7.802994728E0,8.331808090E0
1.037656881E1,1.268195987E0,7.989634991E0,9.360722542E0
1.039738180E1,1.328016520E0,8.181060791E0,9.265008926E0
1.041819479E1,1.411765337E0,9.236295700E0,8.798408508E0
1.043900778E1,6.460621357E-1,9.791430473E0,8.389236450E0
1.045982076E1,6.460621208E-2,9.475577354E0,6.905686378E0
1.048066427E1,2.321037948E-1,8.803194046E0,3.641875982E0
1.050147726E1,-6.460621208E-2,8.886942863E0,2.935993433E0
1.052229024E1,3.684946895E-1,8.796015739E0,2.950350285E0
1.054310323E1,-2.392822690E-2,9.214759827E0,3.881158352E0
1.056391622E1,2.895315289E-1,9.489934921E0,4.352544308E0
1.058472921E1,1.339980662E-1,9.470791817E0,5.245067120E0
1.060554220E1,6.173482537E-1,8.949156761E0,6.068198204E0
1.062635519E1,5.120640397E-1,8.614161491E0,7.054041386E0
1.064719869E1,1.050449133E0,7.843672752E0,6.740581512E0
1.066801168E1,1.088734269E0,6.699903488E0,6.783652306E0
1.068882467E1,4.857429862E-1,5.484349728E0,5.388636589E0
1.070963766E1,-3.086741269E-1,5.804987907E0,4.438685894E0
1.073045065E1,4.809573591E-1,7.216753006E0,4.216153622E0
1.075126363E1,1.198804140E0,8.705088615E0,6.309873104E0
1.077207662E1,1.914258115E-2,9.351150513E0,7.834101200E0
1.079292013E1,-2.440679073E-1,8.362915039E0,5.850451469E0
1.081373312E1,-7.680960894E-1,6.293123722E0,4.950749874E0
1.083454611E1,-1.172483116E-1,6.991827965E0,3.974478483E0
1.085535909E1,4.019941986E-1,9.133403778E0,7.070790768E0
1.087617208E1,2.751746178E-1,8.707481384E0,6.412764549E0
1.089698507E1,4.450650215E-1,6.159125328E0,5.130211830E0
1.091779806E1,7.010970116E-1,7.329215527E0,3.986442566E0
1.093861105E1,1.112662554E0,9.485149384E0,7.719245911E0
1.095945455E1,4.953143001E-1,8.341380119E0,5.233103275E0
1.098023702E1,2.225325108E-1,6.429514408E0,4.249652863E0
1.100105001E1,7.274180651E-1,8.109275818E0,6.206982136E0
1.102189352E1,6.388836503E-1,8.152346611E0,5.919843197E0
1.104270650E1,1.117448211E0,6.151947021E0,4.699503899E0
1.106351949E1,6.939185858E-1,7.625925541E0,6.431907177E0
1.108433248E1,1.404586911E0,8.200202942E0,5.041677475E0
1.110514547E1,8.398807645E-1,7.032505512E0,3.845266104E0
1.112598898E1,1.129412293E0,7.427321434E0,6.766902447E0
1.114680196E1,1.940579176E0,6.999006271E0,5.771488190E0
1.116761495E1,3.924229145E-1,8.427521706E0,6.053841114E0
1.118845846E1,1.555334687E0,8.240880966E0,4.876572609E0
1.120927145E1,-9.571290761E-2,7.865208149E0,5.199603558E0
1.123008444E1,1.268195987E0,8.372486115E0,5.429314613E0
1.125089742E1,4.546363056E-1,8.300702095E0,5.199603558E0
1.127171041E1,4.019941986E-1,8.374878883E0,6.757331371E0
1.129252340E1,4.043870270E-1,8.126026154E0,5.915057659E0
1.131336690E1,-5.503492057E-2,8.401200294E0,6.364908218E0
1.133417989E1,4.857429862E-1,8.140382767E0,5.441278458E0
1.135499288E1,-4.785645287E-3,7.721638680E0,4.634897232E0
1.137580587E1,8.662018180E-1,8.659625053E0,7.374679565E0
1.139661886E1,2.321037948E-1,8.374878883E0,5.795416355E0
1.141746236E1,2.608176768E-1,7.319644451E0,3.689732552E0
1.143827535E1,5.575276613E-1,8.482556343E0,6.565905571E0
1.145908834E1,7.130611539E-1,8.896514893E0,6.192625046E0
1.147990133E1,3.876372576E-1,7.491927624E0,4.386044025E0
1.150071432E1,4.091726840E-1,6.211767673E0,3.823730469E0
1.152152731E1,6.460621208E-2,8.001599312E0,3.280559778E0
1.154234029E1,5.742774606E-1,9.525827408E0,4.398007870E0
1.156315328E1,6.771687865E-1,1.002592659E1,5.769095421E0
1.158396627E1,1.007378340E0,9.315258980E0,6.393621922E0
1.160480978E1,1.124626637E0,8.216953278E0,5.386243820E0
1.162562277E1,9.116654396E-1,6.757331371E0,3.826123476E0
1.164643575E1,8.542376757E-1,7.089933395E0,4.759324074E0
1.166724874E1,4.929214716E-1,7.168896675E0,3.175275564E0
1.168809225E1,4.067798555E-1,6.802794933E0,2.665604353E0
1.170890524E1,2.033899277E-1,6.802794933E0,2.861815929E0
1.172971822E1,2.033899277E-1,6.649653912E0,1.596012712E0
1.175053121E1,1.316052526E-1,7.848458290E0,3.177668571E0
1.177134420E1,4.474578202E-1,9.044869423E0,3.778266907E0
1.179218771E1,6.460621357E-1,9.556933403E0,4.675575256E0
1.181300070E1,9.212366939E-1,9.183652878E0,4.455435753E0
1.183381368E1,9.427721500E-1,9.523433685E0,4.926821709E0
1.185462667E1,1.531406522E0,9.659825325E0,4.797609329E0
1.187543966E1,1.165304661E0,9.824930191E0,5.412564754E0
1.189625265E1,1.418943882E0,9.781859398E0,5.060820103E0
1.191709615E1,1.359123230E0,9.944570541E0,5.443671703E0
1.193790914E1,1.497906923E0,9.923035622E0,5.587240696E0
1.195872213E1,1.395015597E0,9.891928673E0,5.434100151E0
1.197953512E1,1.347159147E0,9.841679573E0,5.577669621E0
1.200034811E1,1.368694544E0,1.004746246E1,5.838487148E0
1.202116110E1,1.450050473E0,1.016710377E1,6.252445698E0
1.204197408E1,1.476371527E0,1.026520920E1,5.158925533E0
1.206281759E1,1.517049551E0,1.046620655E1,5.034498692E0
1.208363058E1,2.048256159E0,1.035613632E1,5.134997368E0
1.210444357E1,1.756331801E0,1.036570740E1,4.914857864E0
1.212525655E1,1.485942841E0,1.070070267E1,4.658825874E0
1.214606954E1,9.379864931E-1,1.068395329E1,6.144768715E0
1.216688253E1,3.278166950E-1,1.038245773E1,5.472385406E0
1.218772604E1,-7.178468257E-2,1.065763187E1,7.054041386E0
1.220853902E1,2.392822653E-1,1.049252701E1,6.151947021E0
1.222935201E1,7.202396393E-1,9.820143700E0,5.852844238E0
1.225016500E1,7.728816867E-1,8.626125336E0,4.792823792E0
1.227097799E1,1.033699393E0,6.319444656E0,3.010170937E0
1.229182150E1,1.301695466E0,4.063013077E0,3.445664644E0
1.231263448E1,1.404586911E0,3.196810961E0,3.795016766E0
1.233344747E1,1.294517040E0,5.115854740E0,4.017549038E0
1.235429098E1,2.153540403E-1,8.061419487E0,3.620340586E0
1.237510397E1,1.746760488E0,9.722038269E0,6.790830612E0
1.239591695E1,8.614161611E-1,8.417949677E0,8.240880966E0
1.241676046E1,1.694118381E0,6.754938126E0,5.675775528E0
1.243757345E1,5.766702294E-1,6.106483459E0,6.142375946E0
1.245841695E1,2.457428932E0,4.264009953E0,4.589433670E0
1.247922994E1,2.297109842E0,6.120840549E0,4.445864677E0
1.250004293E1,3.323630571E0,8.315058708E0,7.661818027E0
1.252088644E1,3.022135019E0,7.070790768E0,6.218945980E0
1.254169943E1,2.112862349E0,5.893522263E0,6.451049805E0
1.256251241E1,2.373680115E0,4.929214478E0,3.943371773E0
1.258335592E1,1.890329838E0,6.331408501E0,6.704689026E0
1.260416891E1,1.794616938E0,7.094718933E0,6.599404812E0
1.262498190E1,1.746760488E0,6.946363926E0,6.144768715E0
1.264582540E1,1.639083505E0,6.116054535E0,4.955535889E0
1.266663839E1,1.655833244E0,8.238488197E0,7.168896675E0
1.268748190E1,1.722832322E0,9.044869423E0,6.549155712E0
1.270829488E1,1.902294040E0,8.745766640E0,5.347958565E0
1.272913839E1,6.963114142E-1,8.968298912E0,5.513063431E0
1.274995138E1,1.339980662E-1,8.401200294E0,3.050848961E0
1.277076437E1,3.326023519E-1,9.571290970E0,3.785445452E0
1.279157736E1,1.914258152E-1,8.197810173E0,4.187439442E0
1.281239034E1,1.938186288E-1,8.398807526E0,5.338387489E0
1.283320333E1,5.383850932E-1,9.662218094E0,4.986642361E0
1.285401632E1,3.014956415E-1,9.848857880E0,6.058627129E0
1.287485983E1,-3.014956415E-1,9.757930756E0,5.106283665E0
1.289567281E1,-2.392822690E-2,1.063848972E1,5.111069202E0
1.291648580E1,-1.055234790E0,9.310472488E0,4.986642361E0
1.293729879E1,6.269195080E-1,1.007856941E1,6.764509678E0
1.295811178E1,1.462014675E0,8.037490845E0,1.720439434E0
1.297892477E1,2.495713949E0,2.347358942E0,3.857230186E0
1.299976827E1,1.409372568E0,2.440679073E0,6.513263226E0
1.302058126E1,1.014556766E0,4.756931305E0,7.238288403E0
1.304139425E1,1.344766378E0,3.768695593E0,3.637090325E-1
1.306220724E1,2.656033039E0,4.362115860E0,5.501099110E0
1.308302023E1,2.411965132E0,7.771887779E0,8.769695282E0
1.310383321E1,2.744567633E0,6.472585201E0,2.277967215E0
1.312464620E1,1.036092162E0,6.726224422E0,3.905086517E0
1.314548971E1,2.000399828E0,7.439285755E0,5.747560024E0
1.316630270E1,1.033699393E0,6.376872540E0,3.873979807E0
1.318711568E1,9.308080077E-1,6.972685337E0,4.130012035E0
1.320792867E1,1.179661512E0,7.128218651E0,5.137390137E0
1.322874166E1,7.130611539E-1,7.298109055E0,5.302495003E0
1.324955465E1,1.631905079E0,8.003992081E0,5.211567879E0
1.327039816E1,1.339980721E0,7.903493404E0,5.379065514E0
1.329121114E1,1.567298889E0,7.750352383E0,4.802394867E0
1.331202413E1,1.079162955E0,8.195417404E0,4.412364960E0
1.333286764E1,1.232303619E0,8.070990562E0,4.807180882E0
1.335368063E1,1.076770186E0,7.996813297E0,4.445864677E0
1.337449361E1,1.328016520E0,7.920242786E0,3.938585997E0
1.339533712E1,1.100698471E0,7.836493969E0,4.407579422E0
1.341615011E1,1.150947690E0,7.977670670E0,4.804787636E0
1.343696310E1,1.165304661E0,8.166703224E0,4.639683247E0
1.345777608E1,1.165304661E0,8.106883049E0,4.907679081E0
1.347861959E1,1.280160069E0,8.082955360E0,4.718646049E0
1.349943258E1,1.217946768E0,8.102097511E0,4.785645485E0
1.352024557E1,1.569691658E0,7.953742504E0,5.003392220E0
1.354105856E1,1.421336651E0,7.905886173E0,5.048855782E0
1.356190206E1,1.440479279E0,7.721638680E0,5.161318302E0
1.358271505E1,1.272981644E0,7.611568928E0,5.240281582E0
1.360352804E1,1.256231904E0,7.657032490E0,5.252245903E0
1.362434103E1,1.045663476E0,7.676175117E0,5.295316696E0
1.364515402E1,1.002592683E0,7.726424217E0,5.367101192E0
1.366596700E1,9.619147182E-1,7.889136314E0,5.125426292E0
1.368681051E1,9.786644578E-1,7.975277901E0,5.156532764E0
1.370762350E1,9.427721500E-1,8.039883614E0,5.173282623E0
1.372843649E1,8.997012973E-1,8.202595711E0,5.056034088E0
1.374927999E1,8.781659007E-1,8.267202377E0,5.204389095E0
1.377009298E1,9.499505758E-1,8.365307808E0,5.218746185E0
1.379090597E1,1.062413216E0,8.353343964E0,5.199603558E0
1.381174947E1,1.117448211E0,8.221738815E0,5.355136871E0
1.383256246E1,1.167697430E0,8.123632431E0,5.302495003E0
1.385337545E1,1.172483087E0,8.037490845E0,5.276174068E0
1.387418844E1,1.253839016E0,7.910671711E0,5.402993679E0
1.389500143E1,1.232303619E0,7.917850018E0,5.357530117E0
1.391581442E1,1.337587833E0,7.881958008E0,5.213960648E0
1.393665792E1,1.383051515E0,7.740781307E0,5.259424210E0
1.395747091E1,1.311266780E0,7.767102242E0,5.225924492E0
1.397828390E1,1.308874011E0,7.812565804E0,5.125426292E0
1.399912740E1,1.107876897E0,7.764709473E0,5.194818020E0
1.401994039E1,1.002592683E0,7.731209755E0,5.247459888E0
1.404075338E1,7.872386575E-1,7.791030407E0,5.206781864E0
1.406156637E1,7.417750359E-1,7.807780266E0,5.166104317E0
1.408237936E1,6.460621357E-1,7.855636597E0,5.233103275E0
1.410322286E1,5.838487148E-1,7.982456207E0,5.221138954E0
1.412403585E1,6.580262184E-1,8.032705307E0,5.211567879E0
1.414484884E1,7.082754970E-1,8.061419487E0,5.156532764E0
1.416566183E1,8.853443861E-1,8.013563156E0,5.051248550E0
1.418647482E1,9.068797827E-1,7.984848976E0,5.151747227E0
1.420731832E1,9.738788009E-1,7.987242222E0,5.204389095E0
1.422813131E1,8.781659007E-1,7.946564198E0,5.240281582E0
1.424894430E1,8.781659007E-1,7.877171993E0,5.331208706E0
1.426975729E1,8.877372146E-1,7.948956966E0,5.295316696E0
1.429060079E1,9.714859724E-1,7.994420528E0,5.225924492E0
1.431141378E1,9.260223508E-1,7.968099594E0,5.324030399E0
1.433222677E1,8.709874153E-1,8.025527000E0,5.347958565E0
1.435307028E1,8.542376757E-1,8.047062874E0,5.381458282E0
1.437388326E1,7.776673436E-1,7.989634991E0,5.469992638E0
1.439469625E1,6.915257573E-1,7.975277901E0,5.508277893E0
1.441553976E1,5.814558864E-1,7.963313580E0,5.529813290E0
1.443635274E1,5.072783828E-1,7.946564198E0,5.592026711E0
1.445716573E1,4.594219327E-1,7.951349735E0,5.556134224E0
1.447797872E1,4.833501875E-1,7.977670670E0,5.458028316E0
1.449882223E1,4.689932466E-1,8.008777618E0,5.398207664E0
1.451963522E1,5.120640397E-1,8.066205025E0,5.324030399E0
1.454044820E1,5.527420044E-1,8.013563156E0,5.290530682E0
1.456126119E1,5.335994363E-1,8.006384850E0,5.211567879E0
1.458207418E1,6.029912829E-1,8.023134232E0,5.180460930E0
1.460288717E1,5.575276613E-1,7.987242222E0,5.206781864E0
1.462373068E1,6.053841114E-1,7.901100159E0,5.304887772E0
1.464454366E1,5.934200287E-1,7.965706348E0,5.266602516E0
1.466538717E1,7.609176040E-1,7.915457249E0,5.211567879E0
1.468620016E1,8.494520187E-1,7.810173035E0,5.300102234E0
1.470701315E1,9.451649189E-1,7.860422611E0,5.206781864E0
1.472782613E1,1.000199914E0,7.901100159E0,5.166104317E0
1.474863912E1,1.071984529E0,7.848458290E0,5.285745144E0
1.476945211E1,1.067198873E0,7.879564762E0,5.197210789E0
1.479029562E1,1.129412293E0,7.932207108E0,5.137390137E0
1.481110861E1,1.150947690E0,7.927421570E0,5.185246468E0
1.483192159E1,1.098305583E0,7.958528042E0,5.218746185E0
1.485276510E1,1.067198873E0,7.970492363E0,5.233103275E0
1.487357809E1,1.050449133E0,7.936992645E0,5.237888813E0
1.489439108E1,1.019342422E0,7.915457249E0,5.225924492E0
1.491520406E1,8.279166222E-1,7.910671711E0,5.307280540E0
1.493601705E1,6.245267391E-1,7.948956966E0,5.386243820E0
1.495683004E1,5.479564071E-1,7.915457249E0,5.443671703E0
1.497764303E1,5.359922647E-1,7.953742504E0,5.367101192E0
1.499848653E1,6.867401004E-1,8.166703224E0,5.410171986E0
1.501929952E1,8.470591903E-1,8.267202377E0,5.367101192E0
1.504011251E1,8.685946465E-1,8.238488197E0,5.453242779E0
1.506092550E1,9.284151793E-1,8.236095428E0,5.391029358E0
1.508173849E1,8.805587292E-1,8.164310455E0,5.309673309E0
1.510255148E1,9.571290612E-1,8.047062874E0,5.364708424E0
1.512336446E1,8.279166222E-1,7.953742504E0,5.343173027E0
1.514417745E1,7.489534616E-1,7.872386456E0,5.376672268E0
1.516502096E1,7.465606928E-1,7.874779224E0,5.474778175E0
1.518583395E1,8.518448472E-1,7.956135273E0,5.312066078E0
1.520664694E1,9.355936646E-1,7.896314621E0,5.326423168E0
1.522745992E1,1.038485050E0,7.841279984E0,5.304887772E0
1.524830343E1,1.012163997E0,7.869993687E0,5.125426292E0
1.526911642E1,1.012163997E0,7.795815945E0,5.249852657E0
1.528992940E1,8.901300430E-1,7.800601959E0,5.340780258E0
1.531077291E1,7.896314859E-1,7.913064480E0,5.237888813E0
1.533158590E1,8.685946465E-1,7.877171993E0,5.285745144E0
1.535239889E1,9.068797827E-1,7.903493404E0,5.249852657E0
1.537321188E1,9.714859724E-1,8.001599312E0,5.192425251E0
1.539405538E1,8.853443861E-1,8.027919769E0,5.259424210E0
1.541486837E1,8.757730722E-1,8.044670105E0,5.237888813E0
1.543568136E1,7.106683254E-1,8.130811691E0,5.206781864E0
1.545649435E1,6.197410822E-1,8.114061356E0,5.266602516E0
1.547733785E1,5.024927258E-1,8.133204460E0,5.367101192E0
1.549815084E1,5.288137794E-1,8.159524918E0,5.414957523E0
1.551899435E1,5.910272002E-1,8.173882484E0,5.513063431E0
1.553980734E1,5.790630579E-1,8.152346611E0,5.587240696E0
1.556065084E1,6.867401004E-1,8.087740898E0,5.606383324E0
1.558146383E1,7.417750359E-1,8.042277336E0,5.608776093E0
1.560227682E1,9.044869542E-1,8.121239662E0,5.575276852E0
1.562312032E1,9.882357717E-1,8.159524918E0,5.682953835E0
1.564393331E1,1.024128079E0,7.968099594E0,5.570491314E0
1.566474630E1,9.427721500E-1,7.874779224E0,5.544169903E0
1.568558981E1,7.393822074E-1,7.824530125E0,5.376672268E0
1.570640279E1,9.786644578E-1,7.898707390E0,5.285745144E0
1.572721578E1,6.436693072E-1,7.963313580E0,5.048855782E0
1.574805929E1,9.834501147E-1,7.958528042E0,5.139782906E0
1.576887228E1,6.245267391E-1,8.128418922E0,5.240281582E0
1.578968527E1,9.403793216E-1,8.233702660E0,5.211567879E0
1.581052877E1,9.595218897E-1,8.159524918E0,5.235496044E0
1.583134176E1,1.079162955E0,8.054241180E0,5.070391178E0
1.585215475E1,1.146162033E0,7.929814339E0,5.056034088E0
1.587299825E1,9.834501147E-1,7.819744587E0,5.240281582E0
1.589381124E1,1.213161111E0,7.836493969E0,5.242674351E0
1.591465475E1,1.024128079E0,7.972885132E0,5.278566837E0
1.593547330E1,1.170090318E0,7.896314621E0,5.266602516E0
1.595628629E1,8.853443861E-1,7.788637638E0,5.496313572E0
1.597709927E1,8.614161611E-1,7.637889862E0,5.235496044E0
1.599791226E1,8.398807645E-1,7.633104324E0,5.154139996E0
1.601875577E1,8.327022791E-1,7.685746193E0,5.120640278E0
1.603956876E1,9.188438654E-1,7.793423176E0,5.206781864E0
1.606038174E1,7.537391186E-1,7.800601959E0,5.173282623E0
1.608119473E1,8.374879360E-1,7.822137356E0,5.146961689E0
1.610200772E1,8.733802438E-1,7.929814339E0,5.158925533E0
1.612285123E1,1.086341500E0,7.968099594E0,5.115854740E0
1.614366422E1,1.004985452E0,8.003992081E0,5.163711071E0
1.616447720E1,1.079162955E0,7.972885132E0,5.166104317E0
1.618529019E1,1.033699393E0,7.977670670E0,5.197210789E0
1.620613370E1,1.127019525E0,7.944170952E0,5.173282623E0
1.622694669E1,1.093519926E0,7.905886173E0,5.087141037E0
1.624775968E1,1.100698471E0,7.836493969E0,5.091926575E0
1.626857266E1,1.105484009E0,7.867600918E0,5.173282623E0
1.628941617E1,1.071984529E0,7.977670670E0,5.242674351E0
1.631022916E1,1.076770186E0,8.015955925E0,5.271388054E0
1.633104214E1,9.906286001E-1,7.922635555E0,5.288137913E0
1.635185513E1,9.547362328E-1,7.853243828E0,5.213960648E0
1.637269864E1,8.805587292E-1,7.858029366E0,5.187639713E0
1.639351163E1,8.925228715E-1,7.850851059E0,5.259424210E0
1.641432462E1,7.872386575E-1,7.901100159E0,5.247459888E0
1.643513760E1,9.092726111E-1,7.922635555E0,5.328815937E0
1.645598111E1,7.561319470E-1,8.063812256E0,5.218746185E0
1.647679410E1,1.014556766E0,8.310273170E0,5.381458282E0
1.649760709E1,8.183453679E-1,8.286344528E0,5.513063431E0
1.651845059E1,9.068797827E-1,8.195417404E0,5.498706341E0
1.653926358E1,9.044869542E-1,8.116454124E0,5.343173027E0
1.656007657E1,1.043270707E0,8.070990562E0,5.252245903E0
1.658088956E1,1.129412293E0,8.042277336E0,5.257031441E0
1.660173306E1,1.083948612E0,8.070990562E0,5.233103275E0
1.662254605E1,1.196411371E0,7.989634991E0,5.290530682E0
1.664335904E1,1.217946768E0,7.956135273E0,5.218746185E0
1.666417203E1,1.404586911E0,7.915457249E0,5.134997368E0
1.668501553E1,1.447657704E0,7.925028801E0,5.113461971E0
1.670582852E1,1.603191137E0,7.963313580E0,5.079962254E0
1.672664151E1,1.603191137E0,7.982456207E0,5.084748268E0
1.674745450E1,1.574477315E0,8.049455643E0,5.063212872E0
1.676829801E1,1.607976794E0,8.059026718E0,4.998606682E0
1.678911099E1,1.495514154E0,7.999206066E0,5.022534847E0
1.680995450E1,1.464407444E0,7.968099594E0,5.022534847E0
1.683076749E1,1.363908887E0,7.941778183E0,5.034498692E0
1.685158048E1,1.390229940E0,7.920242786E0,5.130211830E0
1.687239346E1,1.390229940E0,7.903493404E0,5.108676434E0
1.689320645E1,1.284945726E0,7.879564762E0,5.213960648E0
1.691404996E1,1.265803218E0,7.831708431E0,5.259424210E0
1.693486295E1,1.165304661E0,7.829315662E0,5.228317261E0
1.695567593E1,1.060020447E0,7.846065521E0,5.324030399E0
1.697648892E1,9.810572863E-1,7.925028801E0,5.362315655E0
1.699733243E1,8.350951076E-1,7.994420528E0,5.326423168E0
1.701814542E1,8.015955687E-1,8.013563156E0,5.307280540E0
1.703895841E1,7.322037220E-1,8.047062874E0,5.264209747E0
1.705980191E1,7.034898400E-1,8.070990562E0,5.178068161E0
1.708061490E1,6.891329288E-1,8.183453560E0,5.300102234E0
1.710142789E1,7.609176040E-1,8.279166222E0,5.402993679E0
1.712227139E1,8.446664214E-1,8.219346046E0,5.455635548E0
1.714308438E1,9.643075466E-1,8.061419487E0,5.249852657E0
1.716389737E1,1.083948612E0,7.879564762E0,5.144568920E0
1.718471036E1,1.138983607E0,7.788637638E0,5.163711071E0
1.720552335E1,1.107876897E0,7.826922894E0,5.316852093E0
1.722633634E1,1.117448211E0,7.850851059E0,5.402993679E0
1.724714932E1,1.067198873E0,7.879564762E0,5.434100151E0
1.726799283E1,1.095912814E0,7.884350777E0,5.319244862E0
1.728880582E1,9.451649189E-1,7.843672752E0,5.295316696E0
1.730961880E1,9.667003751E-1,7.908278942E0,5.276174068E0
1.733043179E1,9.403793216E-1,8.011170387E0,5.134997368E0
1.735124478E1,1.012163997E0,8.059026718E0,5.161318302E0
1.737208829E1,1.002592683E0,8.116454124E0,5.111069202E0
1.739290128E1,9.714859724E-1,8.097311974E0,5.115854740E0
1.741371426E1,1.016949654E0,8.037490845E0,5.190032482E0
1.743452725E1,1.079162955E0,8.061419487E0,5.168497086E0
1.745537076E1,1.100698471E0,8.013563156E0,5.201996326E0
1.747618375E1,1.158126116E0,7.927421570E0,5.285745144E0
1.749699674E1,1.012163997E0,7.936992645E0,5.328815937E0
1.751780972E1,1.129412293E0,7.984848976E0,5.395814896E0
1.753862271E1,1.081555843E0,7.956135273E0,5.343173027E0
1.755946622E1,1.129412293E0,7.920242786E0,5.249852657E0
1.758027921E1,1.136590719E0,7.929814339E0,5.276174068E0
1.760109219E1,1.107876897E0,7.975277901E0,5.225924492E0
1.762190518E1,1.203589797E0,7.944170952E0,5.211567879E0
1.764274869E1,1.119840980E0,7.929814339E0,5.185246468E0
1.766356168E1,1.167697430E0,7.932207108E0,5.144568920E0
1.768437466E1,1.103091240E0,7.920242786E0,5.221138954E0
1.770521817E1,1.131805062E0,7.910671711E0,5.173282623E0
1.772603116E1,1.127019525E0,7.963313580E0,5.170889854E0
1.774684415E1,1.076770186E0,7.982456207E0,5.194818020E0
1.776765714E1,1.105484009E0,7.984848976E0,5.185246468E0
1.778847012E1,1.028913736E0,7.941778183E0,5.240281582E0
1.780928311E1,1.071984529E0,7.953742504E0,5.204389095E0
1.783012662E1,1.081555843E0,7.970492363E0,5.211567879E0
1.785093961E1,1.093519926E0,7.948956966E0,5.254638672E0
1.787175259E1,1.110269666E0,7.956135273E0,5.254638672E0
1.789256558E1,1.091127157E0,7.951349735E0,5.242674351E0
1.791337857E1,1.165304661E0,7.946564198E0,5.283352375E0
1.793422208E1,1.153340459E0,8.011170387E0,5.180460930E0
1.795503506E1,1.263410330E0,8.008777618E0,5.134997368E0
1.797584805E1,1.261017561E0,7.984848976E0,5.173282623E0
1.799669156E1,1.249053478E0,7.965706348E0,5.137390137E0
1.801750455E1,1.296909928E0,7.956135273E0,5.151747227E0
1.803831754E1,1.296909928E0,7.980063438E0,5.154139996E0
1.805913052E1,1.452443361E0,8.013563156E0,5.084748268E0
1.807994351E1,1.418943882E0,7.996813297E0,5.103890896E0
1.810075650E1,1.505085468E0,7.965706348E0,5.070391178E0
1.812160001E1,1.450050473E0,7.934599876E0,5.070391178E0
1.814241300E1,1.445264935E0,7.889136314E0,5.125426292E0
1.816322598E1,1.466800332E0,7.920242786E0,5.134997368E0
1.818403897E1,1.478764415E0,7.913064480E0,5.161318302E0
1.820485196E1,1.502692580E0,7.838887215E0,5.182853699E0
1.822566495E1,1.363908887E0,7.836493969E0,5.161318302E0
1.824647794E1,1.418943882E0,7.908278942E0,5.111069202E0
1.826729092E1,1.311266780E0,7.958528042E0,5.170889854E0
1.828810391E1,1.378265858E0,7.975277901E0,5.137390137E0
1.830891690E1,1.292124271E0,7.951349735E0,5.087141037E0
1.832976041E1,1.249053478E0,7.889136314E0,5.158925533E0
1.835057340E1,1.229910851E0,7.901100159E0,5.213960648E0
1.837138638E1,1.088734269E0,7.841279984E0,5.237888813E0
1.839222989E1,1.165304661E0,7.884350777E0,5.362315655E0
1.841304288E1,1.112662554E0,8.054241180E0,5.268995285E0
1.843385587E1,1.021735311E0,8.049455643E0,5.300102234E0
1.845466885E1,8.303094506E-1,7.814958572E0,5.261816978E0
1.847548184E1,6.053841114E-1,7.676175117E0,5.158925533E0
1.849629483E1,5.838487148E-1,7.831708431E0,5.316852093E0
1.851713834E1,7.369893789E-1,8.118846893E0,5.347958565E0
1.853795132E1,9.379864931E-1,8.300702095E0,5.264209747E0
1.855876431E1,9.738788009E-1,8.286344528E0,5.359922886E0
1.857957730E1,9.236295223E-1,8.202595711E0,5.450850010E0
1.860039029E1,9.667003751E-1,8.114061356E0,5.393422127E0
1.862120328E1,1.048056364E0,8.023134232E0,5.233103275E0
1.864204678E1,1.225125194E0,7.944170952E0,5.120640278E0
1.866285977E1,1.215553880E0,7.917850018E0,5.106283665E0
1.868367276E1,1.289731383E0,7.936992645E0,5.125426292E0
1.870448575E1,1.304088354E0,7.929814339E0,5.166104317E0
1.872529874E1,1.359123230E0,7.896314621E0,5.209175110E0
1.874611173E1,1.371087432E0,7.932207108E0,5.187639713E0
1.876692471E1,1.423729420E0,7.960920811E0,5.103890896E0
1.878773770E1,1.320838094E0,7.908278942E0,5.170889854E0
1.880855069E1,1.287338614E0,7.917850018E0,5.199603558E0
1.882936368E1,1.234696507E0,7.956135273E0,5.156532764E0
1.885017667E1,1.306481123E0,7.944170952E0,5.158925533E0
1.887098966E1,1.275374413E0,7.965706348E0,5.132604599E0
1.889183316E1,1.263410330E0,8.001599312E0,5.111069202E0
1.891264615E1,1.227517962E0,7.996813297E0,5.292923450E0
1.893345914E1,1.227517962E0,7.436892986E0,4.871787071E0
1.895427213E1,1.131805062E0,7.628318787E0,5.010570526E0
1.897511563E1,1.143769264E0,8.642875671E0,5.618347645E0
1.899592862E1,1.177268744E0,9.011369705E0,6.072983742E0
1.901674161E1,1.234696507E0,8.346165657E0,5.426921844E0
1.903755460E1,1.237089276E0,7.156932354E0,4.555934429E0
1.905836759E1,1.167697430E0,7.118647575E0,4.888536453E0
1.907918057E1,1.148554921E0,8.377271652E0,5.211567879E0
1.910002408E1,1.217946768E0,9.157332420E0,6.025127411E0
1.912083707E1,1.277767301E0,8.683553696E0,5.654240131E0
1.914165006E1,1.316052437E0,7.719245911E0,4.807180882E0
1.916246304E1,1.387837172E0,7.367500782E0,4.443471432E0
1.918327603E1,1.457229018E0,7.556533813E0,4.658825874E0
1.920411954E1,1.505085468E0,7.891529083E0,4.950749874E0
1.922493253E1,1.500299811E0,8.080561638E0,5.192425251E0
1.924574551E1,1.576870084E0,8.056633949E0,5.266602516E0
1.926658902E1,1.605584025E0,7.999206066E0,5.158925533E0
1.928740201E1,1.670190215E0,7.934599876E0,5.072783947E0
1.930821500E1,1.603191137E0,7.860422611E0,4.989035130E0
1.932902798E1,1.572084427E0,7.824530125E0,4.986642361E0
1.934984097E1,1.505085468E0,7.858029366E0,5.039284706E0
1.937068448E1,1.500299811E0,7.920242786E0,5.005784988E0
1.939149747E1,1.452443361E0,7.989634991E0,5.058426857E0
1.941231046E1,1.464407444E0,8.008777618E0,5.151747227E0
1.943312344E1,1.452443361E0,8.008777618E0,5.146961689E0
1.945393643E1,1.438086390E0,7.963313580E0,5.123033047E0
1.947474942E1,1.478764415E0,7.927421570E0,5.075176716E0
1.949559293E1,1.416550994E0,7.920242786E0,5.079962254E0
1.951640592E1,1.473978758E0,7.915457249E0,5.101497650E0
1.953721890E1,1.359123230E0,7.944170952E0,5.137390137E0
1.955806241E1,1.402194023E0,7.941778183E0,5.130211830E0
1.957887540E1,1.342373490E0,7.932207108E0,5.108676434E0
1.959968838E1,1.332802176E0,7.953742504E0,5.118247509E0
1.962050137E1,1.325623751E0,7.951349735E0,5.151747227E0
1.964134488E1,1.268195987E0,7.953742504E0,5.192425251E0
1.966215787E1,1.272981644E0,7.944170952E0,5.178068161E0
1.968297086E1,1.220339537E0,7.944170952E0,5.182853699E0
1.970381436E1,1.227517962E0,7.953742504E0,5.187639713E0
1.972462735E1,1.220339537E0,7.963313580E0,5.173282623E0
1.974547086E1,1.215553880E0,7.958528042E0,5.185246468E0
1.976628384E1,1.232303619E0,7.996813297E0,5.175675392E0
1.978712735E1,1.196411371E0,7.982456207E0,5.158925533E0
1.980794034E1,1.205982566E0,7.970492363E0,5.178068161E0
1.982878384E1,1.205982566E0,7.972885132E0,5.170889854E0
1.984959683E1,1.215553880E0,7.970492363E0,5.156532764E0
1.987040982E1,1.208375454E0,7.975277901E0,5.168497086E0
1.989125333E1,1.225125194E0,7.975277901E0,5.194818020E0
1.991206632E1,1.270588875E0,7.960920811E0,5.182853699E0
1.993290982E1,1.311266780E0,7.968099594E0,5.166104317E0
1.995372281E1,1.354337573E0,7.939385414E0,5.144568920E0
1.997453580E1,1.339980721E0,7.905886173E0,5.146961689E0
1.999537930E1,1.337587833E0,7.898707390E0,5.139782906E0
2.001619229E1,1.347159147E0,7.927421570E0,5.134997368E0
2.003700528E1,1.332802176E0,7.932207108E0,5.149354458E0
2.005784879E1,1.323230863E0,7.946564198E0,5.127819061E0
2.007866177E1,1.253839016E0,7.944170952E0,5.123033047E0
2.009950528E1,1.227517962E0,7.968099594E0,5.132604599E0
2.012031827E1,1.179661512E0,7.994420528E0,5.154139996E0
2.014113126E1,1.129412293E0,7.996813297E0,5.173282623E0
2.016197476E1,1.081555843E0,7.951349735E0,5.204389095E0
2.018278775E1,9.978070259E-1,7.968099594E0,5.230710506E0
2.020360074E1,9.595218897E-1,7.960920811E0,5.230710506E0
2.022444424E1,9.643075466E-1,7.960920811E0,5.261816978E0
2.024525723E1,9.954141974E-1,7.970492363E0,5.240281582E0
2.026610074E1,1.043270707E0,7.975277901E0,5.209175110E0
2.028691373E1,1.138983607E0,7.932207108E0,5.223531723E0
2.030775723E1,1.201196909E0,7.968099594E0,5.199603558E0
2.032857022E1,1.306481123E0,7.968099594E0,5.137390137E0
2.034941373E1,1.328016520E0,7.905886173E0,5.146961689E0
2.037022672E1,1.308874011E0,7.874779224E0,5.151747227E0
2.039103970E1,1.258624673E0,7.908278942E0,5.175675392E0
2.041185269E1,1.256231904E0,7.915457249E0,5.185246468E0
2.043269620E1,1.184447169E0,7.932207108E0,5.182853699E0
2.045350919E1,1.069591761E0,7.939385414E0,5.211567879E0
2.047432218E1,9.810572863E-1,7.956135273E0,5.254638672E0
2.049516568E1,9.571290612E-1,7.968099594E0,5.233103275E0
2.051597867E1,9.188438654E-1,7.987242222E0,5.252245903E0
2.053679166E1,8.973084688E-1,7.994420528E0,5.257031441E0
2.055760464E1,8.829515576E-1,8.003992081E0,5.245067120E0
2.057841763E1,9.092726111E-1,7.982456207E0,5.247459888E0
2.059923062E1,9.164510965E-1,7.984848976E0,5.268995285E0
2.062007413E1,9.140582681E-1,7.939385414E0,5.283352375E0
2.064088712E1,9.260223508E-1,7.936992645E0,5.285745144E0
2.066173062E1,9.954141974E-1,7.946564198E0,5.237888813E0
2.068254361E1,1.026520967E0,7.936992645E0,5.237888813E0
2.070338712E1,1.038485050E0,7.958528042E0,5.206781864E0
2.072420010E1,1.076770186E0,7.987242222E0,5.180460930E0
2.074501309E1,1.117448211E0,7.980063438E0,5.166104317E0
2.076582608E1,1.167697430E0,7.984848976E0,5.130211830E0
2.078663907E1,1.155733347E0,7.975277901E0,5.120640278E0
2.080745206E1,1.165304661E0,7.941778183E0,5.201996326E0
2.082829556E1,1.117448211E0,7.927421570E0,5.237888813E0
2.084910855E1,1.095912814E0,7.903493404E0,5.276174068E0
2.086992154E1,1.088734269E0,7.896314621E0,5.278566837E0
2.089073453E1,1.043270707E0,7.908278942E0,5.288137913E0
2.091157803E1,9.906286001E-1,7.884350777E0,5.316852093E0
2.093239102E1,9.906286001E-1,7.922635555E0,5.292923450E0
2.095320401E1,1.028913736E0,7.968099594E0,5.249852657E0
2.097401700E1,1.050449133E0,7.972885132E0,5.247459888E0
2.099486051E1,1.031306505E0,7.977670670E0,5.230710506E0
2.101567349E1,1.057627559E0,7.980063438E0,5.218746185E0
2.103648648E1,1.060020447E0,7.963313580E0,5.223531723E0
2.105732999E1,1.105484009E0,7.970492363E0,5.194818020E0
2.107814298E1,1.122233868E0,7.968099594E0,5.182853699E0
2.109895596E1,1.138983607E0,7.975277901E0,5.180460930E0
2.111976895E1,1.155733347E0,7.989634991E0,5.163711071E0
2.114061246E1,1.220339537E0,7.956135273E0,5.166104317E0
2.116142545E1,1.220339537E0,7.948956966E0,5.161318302E0
2.118223843E1,1.239482164E0,7.970492363E0,5.166104317E0
2.120308194E1,1.258624673E0,7.948956966E0,5.137390137E0
2.122389493E1,1.328016520E0,7.953742504E0,5.139782906E0
2.124470792E1,1.308874011E0,7.965706348E0,5.118247509E0
2.126552091E1,1.320838094E0,7.960920811E0,5.139782906E0
2.128636441E1,1.325623751E0,7.927421570E0,5.163711071E0
2.130717740E1,1.342373490E0,7.917850018E0,5.166104317E0
2.132799039E1,1.344766378E0,7.910671711E0,5.137390137E0
2.134880338E1,1.301695466E0,7.925028801E0,5.168497086E0
2.136964688E1,1.208375454E0,7.939385414E0,5.201996326E0
2.139045987E1,1.110269666E0,7.975277901E0,5.204389095E0
2.141127286E1,1.081555843E0,7.956135273E0,5.221138954E0
2.143211636E1,1.079162955E0,7.996813297E0,5.178068161E0
2.145292935E1,1.086341500E0,8.063812256E0,5.137390137E0
2.147374234E1,1.177268744E0,7.987242222E0,5.115854740E0
2.149458585E1,1.098305583E0,7.953742504E0,5.199603558E0
2.151539884E1,1.088734269E0,7.992027760E0,5.168497086E0
2.153621182E1,1.055234790E0,8.018348694E0,5.206781864E0
2.155702481E1,1.067198873E0,7.956135273E0,5.273781300E0
2.157783780E1,1.107876897E0,7.951349735E0,5.240281582E0
2.159868131E1,1.127019525E0,7.956135273E0,5.245067120E0
2.161949429E1,1.222732425E0,7.941778183E0,5.237888813E0
2.164030728E1,1.194018483E0,7.929814339E0,5.178068161E0
2.166112027E1,1.277767301E0,8.149953842E0,5.386243820E0
2.168193326E1,1.241874933E0,7.848458290E0,5.505885124E0
2.170274625E1,1.203589797E0,7.719245911E0,5.651846886E0
2.172355924E1,1.323230863E0,7.518248558E0,5.223531723E0
2.174437222E1,1.196411371E0,7.496713161E0,5.668596745E0
2.176521573E1,1.196411371E0,7.716853142E0,5.352744102E0
2.178602872E1,1.249053478E0,7.817351341E0,5.697310925E0
2.180684171E1,1.203589797E0,7.853243828E0,5.240281582E0
2.182765469E1,1.306481123E0,7.719245911E0,5.118247509E0
2.184846768E1,1.086341500E0,7.829315662E0,5.151747227E0
2.186931119E1,1.311266780E0,7.728816986E0,5.027320385E0
2.189012418E1,8.973084688E-1,7.635497093E0,5.120640278E0
2.191093716E1,1.021735311E0,7.453642368E0,4.639683247E0
2.193175015E1,8.685946465E-1,7.932207108E0,5.170889854E0
2.195259366E1,9.140582681E-1,8.178668022E0,4.591826439E0
2.197340665E1,8.853443861E-1,8.437092781E0,4.661218643E0
2.199421964E1,6.819544435E-1,8.123632431E0,4.476971149E0
2.201503262E1,1.141376376E0,8.047062874E0,4.386044025E0
2.203587613E1,9.332008362E-1,8.291130066E0,4.859822750E0
2.205668912E1,1.318445325E0,8.453842163E0,5.213960648E0
2.207750211E1,1.148554921E0,8.286344528E0,5.331208706E0
2.209834561E1,1.342373490E0,7.831708431E0,5.209175110E0
2.211915860E1,1.179661512E0,7.690532207E0,5.211567879E0
2.213997159E1,1.222732425E0,7.848458290E0,5.319244862E0
2.216078458E1,1.239482164E0,7.903493404E0,5.376672268E0
2.218162808E1,1.148554921E0,7.872386456E0,5.352744102E0
2.220244107E1,1.127019525E0,7.869993687E0,5.223531723E0
2.222325406E1,9.690931439E-1,7.913064480E0,5.161318302E0
2.224406705E1,1.112662554E0,7.920242786E0,5.166104317E0
2.226491055E1,9.786644578E-1,7.893921852E0,5.180460930E0
2.228572354E1,9.906286001E-1,7.922635555E0,5.233103275E0
2.230656705E1,9.308080077E-1,7.987242222E0,5.285745144E0
2.232741055E1,8.542376757E-1,8.003992081E0,5.302495003E0
2.234822354E1,8.542376757E-1,7.984848976E0,5.319244862E0
2.236903653E1,7.537391186E-1,8.018348694E0,5.221138954E0
2.238988004E1,8.470591903E-1,8.044670105E0,5.180460930E0
2.241069302E1,8.566305041E-1,8.047062874E0,5.178068161E0
2.243150601E1,9.020941257E-1,8.039883614E0,5.082355499E0
2.245231900E1,9.451649189E-1,8.092526436E0,5.151747227E0
2.247316251E1,1.153340459E0,8.080561638E0,5.209175110E0
2.249397550E1,1.136590719E0,7.903493404E0,5.151747227E0
2.251478848E1,1.105484009E0,7.688138962E0,4.922036171E0
2.253560147E1,1.318445325E0,7.003791809E0,4.642076015E0
2.255644498E1,9.690931439E-1,6.587440968E0,4.565505505E0
2.257725797E1,1.567298889E0,6.917650223E0,4.295116425E0
2.259807095E1,1.380658627E0,7.008577347E0,4.993820667E0
2.261888394E1,1.239482164E0,6.867401123E0,4.919643402E0
2.263969693E1,1.277767301E0,6.733402729E0,4.859822750E0
2.266054044E1,9.714859724E-1,7.013363361E0,4.905286312E0
2.268132291E1,1.127019525E0,7.264609337E0,4.890929699E0
2.270216641E1,8.638089895E-1,7.645068169E0,4.759324074E0
2.272297940E1,1.146162033E0,7.700103283E0,5.259424210E0
2.274379239E1,6.939185858E-1,7.149754047E0,4.419543266E0
2.276460538E1,1.107876897E0,6.982256413E0,4.297509670E0
2.278541837E1,7.441678643E-1,7.245467186E0,4.515256405E0
2.280626187E1,1.277767301E0,7.566105366E0,4.500899315E0
2.282707486E1,1.100698471E0,7.731209755E0,4.709074974E0
2.284788785E1,1.182054400E0,7.841279984E0,4.718646049E0
2.286870084E1,1.246660590E0,7.664210796E0,4.943571568E0
2.288951382E1,1.179661512E0,7.444071293E0,5.029713154E0
2.291035733E1,1.244267821E0,7.465606689E0,4.910071850E0
2.293117032E1,1.363908887E0,7.664210796E0,5.144568920E0
2.295198331E1,1.406979680E0,7.759923935E0,5.206781864E0
2.297279630E1,1.332802176E0,7.884350777E0,5.201996326E0
2.299363980E1,1.325623751E0,7.893921852E0,5.192425251E0
2.301445279E1,1.198804140E0,7.932207108E0,5.187639713E0
2.303526578E1,1.337587833E0,8.025527000E0,5.113461971E0
2.305610928E1,1.256231904E0,8.061419487E0,5.113461971E0
2.307692227E1,1.263410330E0,8.044670105E0,5.118247509E0
2.309773526E1,1.100698471E0,7.984848976E0,5.158925533E0
2.311854825E1,1.060020447E0,7.984848976E0,5.223531723E0
2.313939176E1,1.091127157E0,8.042277336E0,5.261816978E0
2.316020474E1,1.057627559E0,7.968099594E0,5.347958565E0
2.318101773E1,1.002592683E0,7.927421570E0,5.345565796E0
2.320186124E1,1.004985452E0,7.941778183E0,5.312066078E0
2.322267423E1,1.007378340E0,7.913064480E0,5.312066078E0
2.324348721E1,1.038485050E0,7.910671711E0,5.309673309E0
2.326430020E1,1.021735311E0,7.925028801E0,5.254638672E0
2.328514371E1,9.690931439E-1,7.936992645E0,5.249852657E0
2.330595670E1,1.012163997E0,7.960920811E0,5.168497086E0
2.332676968E1,9.332008362E-1,8.006384850E0,5.178068161E0
2.334758267E1,9.260223508E-1,8.030312538E0,5.245067120E0
2.336842618E1,8.590233326E-1,8.051848412E0,5.302495003E0
2.338923917E1,8.757730722E-1,8.035098076E0,5.273781300E0
2.341005216E1,9.236295223E-1,8.042277336E0,5.249852657E0
2.343089566E1,9.308080077E-1,8.015955925E0,5.280959606E0
2.345170865E1,9.044869542E-1,7.958528042E0,5.292923450E0
2.347252164E1,9.164510965E-1,7.929814339E0,5.259424210E0
2.349333463E1,1.012163997E0,7.879564762E0,5.187639713E0
2.351414761E1,1.016949654E0,7.858029366E0,5.194818020E0
2.353499112E1,1.052842021E0,7.893921852E0,5.180460930E0
2.355580411E1,9.954141974E-1,7.915457249E0,5.187639713E0
2.357661710E1,1.036092162E0,7.879564762E0,5.225924492E0
2.359743009E1,1.024128079E0,7.865208149E0,5.242674351E0
2.361824307E1,1.009771109E0,7.881958008E0,5.216353416E0
2.363905606E1,1.024128079E0,7.934599876E0,5.245067120E0
2.365986905E1,1.016949654E0,7.980063438E0,5.235496044E0
2.368068204E1,1.024128079E0,7.953742504E0,5.264209747E0
2.370152554E1,1.021735311E0,7.939385414E0,5.252245903E0
2.372233853E1,7.010970116E-1,7.697710514E0,5.039284706E0
2.374315152E1,1.292124271E0,7.953742504E0,5.642275810E0
2.376396451E1,1.550549030E0,8.011170387E0,4.773681164E0
2.378477750E1,1.050449133E0,7.709674358E0,4.701896667E0
2.380559048E1,1.179661512E0,7.396214962E0,5.168497086E0
2.382643399E1,6.532405615E-1,7.743174076E0,5.091926575E0
2.384724698E1,1.033699393E0,7.439285755E0,4.694717884E0
2.386805997E1,6.436693072E-1,7.829315662E0,5.324030399E0
2.388890347E1,1.246660590E0,8.384450912E0,5.448457241E0
2.390971646E1,9.308080077E-1,8.494520187E0,5.173282623E0
2.393052945E1,8.255237937E-1,8.353343964E0,5.111069202E0
2.395134244E1,9.140582681E-1,8.080561638E0,5.216353416E0
2.397218594E1,1.914258152E-1,7.965706348E0,5.527420521E0
2.399299893E1,9.355936646E-1,8.037490845E0,5.386243820E0
2.401381192E1,7.250252366E-1,7.939385414E0,5.446064472E0
2.403465543E1,1.430907965E0,7.807780266E0,5.216353416E0
2.405546842E1,7.657032609E-1,8.075776100E0,4.668396950E0
2.407628140E1,1.033699393E0,7.891529083E0,5.185246468E0
2.409712491E1,1.141376376E0,7.709674358E0,6.230910301E0
2.411796842E1,1.115055323E0,7.769495010E0,5.118247509E0
2.413878140E1,1.316052437E0,7.570890903E0,5.041677475E0
2.415959439E1,1.076770186E0,7.637889862E0,5.146961689E0
2.418043790E1,1.198804140E0,8.070990562E0,4.969892502E0
2.420125088E1,1.048056364E0,8.154739380E0,5.726024628E0
2.422209439E1,1.112662554E0,7.664210796E0,5.017749310E0
2.424290738E1,9.882357717E-1,7.281359196E0,4.235296249E0
2.426372037E1,9.451649189E-1,7.171289444E0,4.682754040E0
2.428456387E1,8.231309652E-1,8.188239098E0,5.139782906E0
2.430537686E1,9.044869542E-1,8.738588333E0,5.307280540E0
2.432618985E1,9.212366939E-1,8.279166222E0,5.704489231E0
2.434700284E1,9.762716293E-1,7.984848976E0,5.496313572E0
2.436784634E1,8.805587292E-1,8.087740898E0,4.802394867E0
2.438865933E1,9.523434043E-1,7.712067604E0,5.151747227E0
2.440947232E1,1.117448211E0,7.783852100E0,5.661418438E0
2.443028531E1,9.188438654E-1,8.078168869E0,5.319244862E0
2.445112882E1,8.853443861E-1,8.219346046E0,5.434100151E0
2.447194180E1,1.119840980E0,7.936992645E0,5.572884083E0
2.449275479E1,8.877372146E-1,8.061419487E0,5.280959606E0
2.451356778E1,9.906286001E-1,8.164310455E0,4.161118507E0
2.453441129E1,9.212366939E-1,7.963313580E0,4.929214478E0
2.455522427E1,1.002592683E0,7.479963779E0,5.149354458E0
2.457603726E1,1.210768223E0,7.664210796E0,5.970092297E0
2.459685025E1,9.523434043E-1,7.802994728E0,4.601397991E0
2.461769376E1,9.044869542E-1,7.092326164E0,3.929014683E0
2.463850674E1,1.081555843E0,6.108876228E0,2.914458036E0
2.465931973E1,8.231309652E-1,7.336394310E0,3.579662561E0
2.468013272E1,1.170090318E0,8.956335068E0,6.084948063E0
2.470097623E1,8.805587292E-1,9.360722542E0,7.762316704E0
2.472178922E1,1.418943882E0,8.164310455E0,6.972685337E0
2.474260220E1,1.256231904E0,6.795616150E0,6.496513367E0
2.476341519E1,1.339980721E0,5.355136871E0,4.407579422E0
2.478425870E1,1.057627559E0,5.063212872E0,3.871587038E0
2.480507169E1,6.891329288E-1,5.096712112E0,2.998206854E0
2.482588468E1,7.513462901E-1,6.616154671E0,3.105883837E0
2.484669766E1,3.948157430E-1,8.903693199E0,4.855037212E0
2.486751065E1,8.757730722E-1,1.003789139E1,7.544569969E0
2.488835416E1,6.747759581E-1,9.193224907E0,7.874779224E0
2.490916714E1,1.241874933E0,6.831508636E0,5.460421085E0
2.492998013E1,5.359922647E-1,5.759523869E0,4.943571568E0
2.495079312E1,7.848458290E-1,7.463213921E0,4.089334011E0
2.497163663E1,8.374879360E-1,9.899106979E0,7.331608772E0
2.499244962E1,1.021735311E0,9.016156197E0,6.585047722E0
2.501326260E1,1.026520967E0,6.573083878E0,5.503491879E0
2.503407559E1,1.162911773E0,6.920042992E0,4.003192425E0
2.505488858E1,1.196411371E0,8.992227554E0,6.994220734E0
2.507573209E1,1.057627559E0,8.092526436E0,4.711467743E0
2.509654508E1,7.082754970E-1,7.159325123E0,5.051248550E0
2.511735806E1,1.007378340E0,8.537590981E0,5.290530682E0
2.513817105E1,8.255237937E-1,8.446663857E0,5.166104317E0
2.515898404E1,4.019941986E-1,7.341179848E0,5.257031441E0
2.517982755E1,8.398807645E-1,8.539983749E0,5.075176716E0
2.520064053E1,6.149554253E-1,8.449056625E0,5.185246468E0
2.522145352E1,3.972085714E-1,7.630711555E0,5.101497650E0
2.524226651E1,7.250252366E-1,8.630910873E0,6.037091732E0
2.526311002E1,4.689932466E-1,8.331808090E0,4.953142643E0
2.528392301E1,4.977070987E-1,7.841279984E0,5.012963295E0
2.530473599E1,5.216353536E-1,8.635697365E0,6.166304111E0
2.532554898E1,3.756731451E-1,8.267202377E0,5.261816978E0
2.534639249E1,4.618147612E-1,8.386843681E0,5.781059742E0
2.536720548E1,3.517449200E-1,8.391629219E0,5.046463013E0
2.538801846E1,3.924229145E-1,8.118846893E0,4.577469826E0
2.540883145E1,5.264210105E-1,8.338987350E0,5.666203976E0
2.542964444E1,4.163511395E-1,7.881958008E0,4.687539577E0
2.545045743E1,7.537391186E-1,8.300702095E0,5.625525951E0
2.547127042E1,7.992027402E-1,7.812565804E0,5.118247509E0
2.549211392E1,9.068797827E-1,8.133204460E0,5.886343479E0
2.551292691E1,8.446664214E-1,7.989634991E0,4.378865242E0
2.553373990E1,7.896314859E-1,7.956135273E0,4.278367043E0
2.555455289E1,1.179661512E0,8.047062874E0,5.187639713E0
2.557536588E1,6.723831892E-1,7.889136314E0,4.871787071E0
2.559617886E1,1.079162955E0,8.365307808E0,5.065605640E0
2.561702237E1,9.714859724E-1,8.477770805E0,5.402993679E0
2.563783536E1,9.308080077E-1,7.908278942E0,5.096712112E0
2.565864835E1,8.063812256E-1,8.073383331E0,4.486542225E0
2.567946134E1,9.978070259E-1,8.403593063E0,6.034698486E0
2.570027432E1,6.580262184E-1,8.195417404E0,5.905486107E0
2.572108731E1,6.795616150E-1,6.991827965E0,3.199203968E0
2.574190030E1,6.580262184E-1,8.018348694E0,5.163711071E0
2.576271329E1,4.953143001E-1,9.547362328E0,6.833901405E0
2.578355679E1,8.350951076E-1,8.195417404E0,4.960321426E0
2.580436978E1,5.958128572E-1,5.766702652E0,3.905086517E0
2.582518277E1,1.172483116E-1,7.056434155E0,3.471985579E0
2.584599576E1,5.599204898E-1,9.040083885E0,4.627718925E0
2.586680875E1,1.938186288E-1,9.769894600E0,6.833901405E0
2.588762174E1,1.165304661E0,9.226723671E0,7.558926582E0
2.590843472E1,9.906286001E-1,7.668996811E0,6.259624004E0
2.592926251E1,7.274180651E-1,6.381658077E0,3.950550079E0
2.595007550E1,4.259224236E-1,6.573083878E0,3.184846878E0
2.597088849E1,-1.004985496E-1,7.479963779E0,2.677568436E0
2.599170147E1,6.723831892E-1,8.283951759E0,2.337787628E0
2.601251446E1,3.637090325E-1,9.901499748E0,4.072584152E0
2.603332745E1,8.590233326E-1,1.050449181E1,6.372086525E0
2.605417096E1,5.527420044E-1,1.009053326E1,6.742974281E0
2.607498395E1,1.337587833E0,8.621339798E0,6.501298904E0
2.609579693E1,1.294517040E0,6.874579430E0,5.869594097E0
2.611660992E1,8.542376757E-1,5.773880959E0,3.661018610E0
2.613742291E1,5.024927258E-1,6.307480335E0,2.995813847E0
2.615823590E1,2.871387079E-2,8.047062874E0,3.675375462E0
2.617904889E1,6.652047038E-1,9.320044518E0,4.613361835E0
2.619986188E1,5.694918036E-1,1.007617569E1,6.386443615E0
2.622067486E1,1.234696507E0,9.293723106E0,7.597211838E0
2.624151837E1,1.354337573E0,7.357929707E0,6.666403770E0
2.626233136E1,1.045663476E0,5.548955917E0,4.534399033E0
2.628314435E1,4.450650215E-1,5.785845280E0,3.646661758E0
2.630395733E1,-3.086741269E-1,7.410571575E0,3.333201885E0
2.632477032E1,3.972085714E-1,8.676374435E0,3.239881754E0
2.634558331E1,1.292124242E-1,9.836894035E0,4.919643402E0
2.636642682E1,5.958128572E-1,1.017906761E1,6.975078106E0
2.638723980E1,7.752745152E-1,9.279366493E0,6.888936520E0
2.640805279E1,8.398807645E-1,7.185646534E0,5.876772404E0
2.642886578E1,7.800601721E-1,6.195017815E0,5.190032482E0
2.644967877E1,5.503492057E-2,6.046662807E0,3.883551121E0
2.647052228E1,-1.627119333E-1,6.869793892E0,3.306880951E0
2.649133526E1,-8.733802438E-1,8.042277336E0,3.206382275E0
2.651214825E1,-3.541377485E-1,8.721838951E0,3.665804386E0
2.653296124E1,-3.086741269E-1,9.207581520E0,5.060820103E0
2.655380475E1,-5.479564071E-1,9.576076508E0,6.216553211E0
2.657461773E1,-5.599204898E-1,9.200403214E0,6.398407936E0
2.659543072E1,-9.475577474E-1,8.650053978E0,7.362715244E0
2.661624371E1,-8.063812256E-1,8.437092781E0,6.766902447E0
2.663705670E1,-3.182454109E-1,8.181060791E0,7.451249599E0
2.665790020E1,-7.800601721E-1,7.719245911E0,7.140182972E0
2.667871319E1,-1.698904037E-1,7.389036179E0,6.484549522E0
2.669952618E1,-1.150947690E0,6.958328247E0,6.659225464E0
2.672033917E1,-5.694918036E-1,6.982256413E0,7.848458290E0
2.674118268E1,-1.483550072E0,7.642675400E0,6.876972198E0
2.676199566E1,-1.074377418E0,7.905886173E0,7.350750923E0
2.678280865E1,-1.584048629E0,7.601997375E0,5.855237007E0
2.680365216E1,-1.808973908E0,8.157132149E0,5.216353416E0
2.682446515E1,-1.019342422E0,8.511270523E0,3.945764542E0
2.684527814E1,-1.203589797E0,8.760123253E0,4.780859470E0
2.686609112E1,-1.438086390E0,9.102297783E0,4.563112736E0
2.688693463E1,-1.978864312E0,8.989834785E0,4.304687977E0
2.690774762E1,-2.079362869E0,8.604590416E0,4.486542225E0
2.692856060E1,-2.005185366E0,8.755337715E0,5.340780258E0
2.694940411E1,-2.734996319E0,9.011369705E0,4.816751957E0
2.697021710E1,-2.897708178E0,8.183453560E0,5.376672268E0
2.699103009E1,-3.708875179E0,8.386843681E0,7.109076023E0
2.701187359E1,-2.627319336E0,9.059226990E0,8.422736168E0
2.703268658E1,-2.780459881E0,8.614161491E0,7.862815380E0
2.705349957E1,-1.792224169E0,7.855636597E0,8.226524353E0
2.707431256E1,-1.787438512E0,7.743174076E0,5.608776093E0
2.709512555E1,-1.622333765E0,8.166703224E0,4.036691666E0
2.711596905E1,-1.775474429E0,6.841079712E0,3.665804386E0
2.713678204E1,-1.222732425E0,8.238488197E0,3.857230186E0
2.715759503E1,-1.373480201E0,9.530612946E0,4.551148891E0
2.717843854E1,-1.138983607E0,8.487341881E0,5.950950146E0
2.719925152E1,-1.923829436E0,9.322437286E0,7.738388538E0
2.722006451E1,-2.072184324E0,9.659825325E0,7.838887215E0
2.724087750E1,-1.942971945E0,7.960920811E0,9.071190834E0
2.726169049E1,-2.589034081E0,7.795815945E0,8.554341316E0
2.728250348E1,-1.428515077E0,8.764909744E0,5.079962254E0
2.730334698E1,-2.146361828E0,7.860422611E0,3.230310678E0
2.732415997E1,-1.411765337E0,6.106483459E0,2.462214470E0
2.734497296E1,-9.882357717E-1,7.353144169E0,2.778067112E0
2.736581646E1,-8.087740541E-1,8.982656479E0,1.447657704E0
2.738662945E1,-1.770688772E0,8.262416840E0,2.270788670E0
2.740744244E1,-1.284945726E0,8.767302513E0,6.338587284E0
2.742828595E1,-1.048056364E0,9.195617676E0,6.197410583E0
2.744909894E1,-1.383051515E0,9.073583603E0,6.934400082E0
2.746991192E1,2.201396823E-1,9.363115311E0,7.606783390E0
2.749075543E1,9.571290575E-3,9.401400566E0,5.146961689E0
2.751156842E1,-2.536391914E-1,9.887143135E0,5.297709465E0
2.753238141E1,-6.580262184E-1,9.523433685E0,3.491128206E0
2.755319439E1,-2.849851847E0,9.217152596E0,1.890329838E0
2.757400738E1,-1.067198873E0,9.355937004E0,2.313859463E0
2.759485089E1,-1.392622828E0,9.052047729E0,1.375872970E0
2.761569439E1,3.996013701E-1,9.432506561E0,2.665604353E0
2.763650738E1,-4.785645381E-2,9.066405296E0,3.060420275E0
2.765732037E1,1.069591761E0,8.554341316E0,2.426322222E0
2.767813336E1,-8.303094506E-1,8.240880966E0,4.838287354E0
2.769897687E1,-6.580262184E-1,7.587640762E0,2.780459881E0
2.771978985E1,-1.134197950E0,8.032705307E0,2.155933142E0
2.774060284E1,-7.848458290E-1,8.288737297E0,2.557927370E0
2.776144635E1,-1.124626622E-1,7.618747234E0,3.249453068E0
2.778225934E1,-3.613162339E-1,7.152146816E0,3.979264021E0
2.780307232E1,1.866401732E-1,7.688138962E0,5.170889854E0
2.782391583E1,2.871387303E-1,8.496912956E0,6.273981094E0
2.784472882E1,9.571290761E-2,7.872386456E0,5.826523304E0
2.786554181E1,1.698904037E-1,7.666603565E0,6.695117950E0
2.788635480E1,5.264210105E-1,8.240880966E0,4.953142643E0
2.790719830E1,1.433300734E0,8.709874153E0,6.247660160E0
2.792801129E1,1.320838094E0,8.061419487E0,7.137789726E0
2.794882428E1,1.478764415E0,8.590232849E0,6.312266350E0
2.796966778E1,1.957328916E0,9.279366493E0,5.175675392E0
2.799048077E1,1.021735311E0,8.956335068E0,6.817151546E0
2.801129376E1,1.658226132E0,7.860422611E0,7.247859955E0
2.803210675E1,4.235295951E-1,8.264809608E0,3.792623997E0
2.805295025E1,4.642075896E-1,7.812565804E0,4.201796532E0
2.807376324E1,7.633104324E-1,7.697710514E0,6.032305717E0
2.809457623E1,6.317051649E-1,8.417949677E0,5.989234924E0
2.811538922E1,7.489534616E-1,9.600004196E0,4.335794449E0
2.813620221E1,7.585247755E-1,8.980263710E0,6.620940208E0
2.815704571E1,3.493520916E-1,8.941978455E0,5.491528034E0
2.817785870E1,1.409372568E0,1.015753174E1,6.312266350E0
2.819867169E1,6.269195080E-1,9.882357597E0,6.125626087E0
2.821948468E1,1.117448211E0,9.372686386E0,6.640082836E0
2.824029767E1,7.752745152E-1,9.774680138E0,5.553741455E0
2.826111065E1,1.387837172E0,9.396614075E0,6.544369698E0
2.828192364E1,2.014756680E0,7.109076023E0,6.132804394E0
2.830276715E1,2.060220242E0,7.360322475E0,5.060820103E0
2.832358014E1,3.189632654E0,8.300702095E0,5.663811207E0
2.834439313E1,1.878365755E0,6.824330330E0,2.660818815E0
2.836523663E1,2.514856577E0,6.714260101E0,4.230510235E0
2.838604962E1,1.658226132E0,6.979863644E0,2.459821701E0
2.840686261E1,1.009771109E0,6.891329288E0,2.586641312E0
2.842767560E1,1.055234790E0,4.979464054E0,7.034898400E-1
2.844848858E1,5.359922647E-1,7.690532207E0,2.359323025E0
2.846933209E1,1.639083505E0,8.992227554E0,3.333201885E0
2.849014508E1,1.138983607E0,9.406186104E0,2.136790514E0
2.851095807E1,1.538584948E0,9.253045082E0,2.653640270E0
2.853180157E1,2.311466694E0,9.162117958E0,2.677568436E0
2.855261456E1,1.837687731E0,9.908679008E0,4.005585194E0
2.857342755E1,2.036292076E0,1.020538902E1,4.199403763E0
2.859424054E1,1.387837172E0,1.046620655E1,4.960321426E0
2.861505352E1,1.500299811E0,9.308079720E0,4.409972191E0
2.863589703E1,1.244267821E0,1.000199890E1,3.361915827E0
2.865671002E1,9.643075466E-1,9.583254814E0,5.106283665E0
2.867752301E1,1.459621787E0,9.451649666E0,4.259224415E0
2.869833600E1,1.148554921E0,9.032905579E0,3.806980848E0
2.871917950E1,1.517049551E0,9.678967476E0,4.125226021E0
2.873999249E1,1.170090318E0,8.834300995E0,2.565105915E0
2.876080548E1,6.628118753E-1,8.796015739E0,2.428714991E0
2.878164898E1,1.531406522E0,8.154739380E0,2.694318295E0
2.880243146E1,6.005984545E-1,8.204988480E0,2.950350285E0
2.882327496E1,2.007578135E0,8.437092781E0,1.952543259E0
2.884408795E1,1.629512191E0,9.284152031E0,2.270788670E0
2.886490094E1,2.591426849E0,8.956335068E0,2.383251429E0
2.888574444E1,1.124626637E0,9.604789734E0,3.335594654E0
2.890655743E1,1.076770186E0,9.678967476E0,3.582055569E0
2.892737042E1,-3.565305769E-1,9.193224907E0,3.493520975E0
2.894821393E1,2.440679073E-1,8.635697365E0,4.608576298E0
2.896902691E1,-2.153540403E-2,8.432307243E0,3.656233072E0
2.898983990E1,1.383051515E0,8.147561073E0,5.154139996E0
2.901065289E1,1.351944804E0,7.884350777E0,7.042077065E0
2.903149640E1,1.335195065E0,8.937192917E0,8.429914474E0
2.905230938E1,7.417750359E-1,8.274380684E0,5.970092297E0
2.907312237E1,2.943171859E-1,8.628518105E0,3.603590965E0
2.909396588E1,1.110269666E0,7.858029366E0,8.781659007E-1
2.911477887E1,9.571290761E-2,7.891529083E0,1.076770201E-1
2.913559186E1,1.679761529E0,8.300702095E0,3.160918713E0
2.915643536E1,-2.488535494E-1,8.707481384E0,4.211368084E0
2.917724835E1,1.493121386E0,9.231510162E0,7.367500782E0
2.919806134E1,-1.196411327E-1,8.238488197E0,5.709274769E0
2.921887433E1,1.265803218E0,8.678768158E0,4.247260094E0
2.923968731E1,1.196411345E-2,8.298309326E0,1.380658627E0
2.926053082E1,6.484549642E-1,8.090133667E0,1.495514154E0
2.928134381E1,4.594219327E-1,8.384450912E0,4.345366001E0
2.930215680E1,8.374879509E-2,8.831908226E0,6.951149940E0
2.932296978E1,6.675975323E-1,9.305686951E0,7.307680130E0
2.934378277E1,1.579262912E-1,8.114061356E0,4.194618225E0
2.936459576E1,6.029912829E-1,7.743174076E0,3.273381472E0
2.938543927E1,9.116654396E-1,7.791030407E0,4.352544308E0
2.940625226E1,5.216353536E-1,8.032705307E0,6.458228111E0
2.942709576E1,9.236295223E-1,8.544769287E0,3.340380430E0
2.944790875E1,6.556333899E-1,7.350750923E0,-4.091726840E-1
2.946872174E1,1.083948612E0,7.877171993E0,3.416950703E0
2.948953473E1,1.162911773E0,9.480362892E0,6.896114826E0
2.951037823E1,2.153540403E-2,9.236295700E0,3.962514400E0
2.953119122E1,1.318445325E0,7.654639721E0,2.132004976E0
2.955200421E1,2.488535494E-1,7.489534855E0,3.519842148E0
2.957281720E1,7.345965505E-1,9.109476089E0,5.304887772E0
2.959366070E1,1.323230863E0,8.886942863E0,3.976871252E0
2.961444317E1,1.069591761E0,8.137989998E0,3.172882795E0
2.963525616E1,2.084148407E0,9.360722542E0,7.661818027E0
2.965609967E1,1.194018483E0,9.336793900E0,4.740181446E0
2.967691266E1,1.435693651E-1,7.905886173E0,7.034898400E-1
2.969772564E1,1.014556766E0,8.094919205E0,6.061019897E0
2.971853863E1,1.028913736E0,9.267401695E0,6.850651264E0
2.973935162E1,3.349951804E-1,8.374878883E0,8.087740541E-1
2.976016461E1,1.545763373E0,8.135597229E0,4.871787071E0
2.978100812E1,1.674975827E-2,8.705088615E0,3.960121393E0
2.980182110E1,1.378265858E0,7.929814339E0,1.380658627E0
2.982263409E1,1.172483087E0,8.238488197E0,6.439085960E0
2.984344708E1,8.901300430E-1,8.195417404E0,2.222932339E0
2.986426007E1,1.383051515E0,7.786244869E0,3.684946775E0
2.988507306E1,8.350951076E-1,8.274380684E0,6.936792850E0
2.990591656E1,1.021735311E0,8.360522270E0,1.916650891E0
2.992672955E1,1.363908887E0,8.523234367E0,7.070790768E0
2.994754254E1,1.069591761E0,7.518248558E0,3.574877024E0
2.996835553E1,1.088734269E0,8.365307808E0,4.694717884E0
2.998919903E1,1.057627559E0,9.123832703E0,4.955535889E0
3.001001202E1,1.536192179E0,8.303094864E0,3.024527788E0
3.003082501E1,5.312066078E-1,8.762516975E0,6.297909260E0
3.005163800E1,1.591227055E0,8.047062874E0,2.708675146E0
3.007245099E1,1.201196909E0,9.279366493E0,6.943971157E0
3.009326397E1,1.371087432E0,9.064012527E0,2.531606436E0
3.011410748E1,1.354337573E0,8.910871506E0,5.893522263E0
3.013492047E1,5.527420044E-1,8.496912956E0,3.069991350E0
3.015573346E1,1.399801254E0,7.817351341E0,1.411765337E0
3.017654645E1,1.572084427E0,7.858029366E0,4.759324074E0
3.019738995E1,1.686939955E0,6.920042992E0,2.758924484E0
3.021820294E1,9.619147182E-1,6.790830612E0,4.768895626E0
3.023901593E1,7.920243144E-1,6.819544315E0,6.860222340E0
3.025985943E1,1.083948612E0,6.924828529E0,5.419743061E0
3.028067242E1,1.000199914E0,6.898507595E0,5.326423168E0
3.030148541E1,9.116654396E-1,7.343572617E0,6.183053493E0
3.032229840E1,1.402194023E0,6.541976929E0,5.458028316E0
3.034314190E1,1.079162955E0,5.316852093E0,3.058027267E0
3.036395489E1,1.569691658E0,6.326622963E0,6.623332977E0
3.038476788E1,1.194018483E0,7.683353424E0,8.980263710E0
3.040558087E1,1.500299811E0,6.496513367E0,4.802394867E0
3.042639386E1,1.194018483E0,6.096911907E0,3.955335855E0
3.044723736E1,5.096712112E-1,7.020541668E0,7.546962738E0
3.046805035E1,2.232503414E0,7.764709473E0,1.041117096E1
3.048886334E1,1.514656782E0,8.286344528E0,7.003791809E0
3.050967633E1,2.062613010E0,6.798008919E0,5.737988472E0
3.053048932E1,1.557727575E0,7.415357590E0,4.307080746E0
3.055130231E1,1.672582984E0,9.066405296E0,6.338587284E0
3.057211529E1,-1.292124242E-1,7.202396393E0,3.328416348E0
3.059292828E1,-2.297109663E-1,7.554141045E0,7.015756130E0
3.061377179E1,1.459621787E-1,9.975677490E0,9.004191399E0
3.063458478E1,5.718846321E-1,1.101416302E1,9.698110580E0
3.065539776E1,8.135597110E-1,1.072941685E1,8.516056061E0
3.067621075E1,1.842473447E-1,9.877572060E0,7.286144733E0
3.069702374E1,5.503492355E-1,9.786644936E0,4.357329845E0
3.071783673E1,2.560320199E-1,8.317451477E0,4.402793884E0
3.073868023E1,3.493520916E-1,7.396214962E0,4.656432629E0
3.075949322E1,-4.378865361E-1,7.283751965E0,1.663011789E0
3.078030621E1,-1.225125194E0,7.735995770E0,1.878365755E0
3.080111920E1,1.244267821E0,7.080362320E0,2.165504456E0
3.082196270E1,1.517049551E0,9.387042999E0,6.132804394E0
3.084277569E1,2.541177750E0,9.085547447E0,8.260024071E0
3.086358868E1,2.103291035E0,7.996813297E0,7.783852100E0
3.088440167E1,2.033899307E0,3.373879910E0,1.686939955E0
3.090524518E1,6.029912829E-1,6.230910301E0,2.404786825E0
3.092605816E1,-1.674975902E-1,9.090332985E0,2.706282377E0
3.094687115E1,-5.312066078E-1,1.001156998E1,6.221338749E0
3.096768414E1,8.829515576E-1,9.279366493E0,6.661618233E0
3.098852765E1,-4.546362907E-2,7.123433113E0,1.249053478E0
3.100934064E1,-1.387837082E-1,6.977470875E0,2.122433662E0
3.103015362E1,-1.818545163E-1,6.183053493E0,7.274180651E-1
3.105096661E1,4.833501875E-1,8.767302513E0,3.340380430E0
3.107177960E1,3.086741269E-1,1.044706345E1,3.988835335E0
3.109259259E1,1.127019525E0,9.856036186E0,4.673182487E0
3.111340558E1,6.101697683E-1,7.245467186E0,7.247859955E0
3.113424908E1,8.422735929E-1,7.628318787E0,5.245067120E0
3.115506207E1,8.638089895E-1,9.564111710E0,2.055434704E0
3.117587506E1,5.910272002E-1,1.027717304E1,6.850651264E0
3.119668805E1,1.306481123E0,7.290930748E0,5.759523869E0
3.121753155E1,-2.632105052E-1,5.594419479E0,2.153540373E0
3.123834454E1,8.518448472E-1,5.235496044E0,2.859423161E0
3.125915753E1,1.368694544E0,9.016156197E0,3.701696634E0
3.127997052E1,7.800601721E-1,1.073420238E1,3.625126362E0
3.130081402E1,2.447857618E0,1.090170002E1,7.774280548E0
3.132162701E1,3.900300860E-1,8.408378601E0,7.977670670E0
3.134244000E1,1.907079697E0,5.331208706E0,2.763710260E0
3.136325299E1,3.613162339E-1,6.860222340E0,3.299702406E0
3.138409649E1,5.024927258E-1,7.609176159E0,3.455235958E0
3.140490948E1,1.383051515E0,8.977870941E0,4.199403763E0
3.142572247E1,-3.828516230E-2,9.662218094E0,5.072783947E0
3.144653546E1,3.182454109E0,9.087940216E0,6.460621357E0
3.146734845E1,2.416750938E-1,8.760123253E0,8.456234932E0
3.148816144E1,1.624726534E0,6.185446739E0,2.813959360E0
3.150900494E1,4.809573591E-1,7.549355507E0,3.538984776E0
3.152981793E1,-6.628118753E-1,8.504091263E0,2.373680115E0
3.155063092E1,1.651047587E0,8.551948547E0,3.653840065E0
3.157144391E1,-3.684946895E-1,9.650253296E0,5.211567879E0
3.159225689E1,2.237289190E0,9.879964828E0,6.465406895E0
3.161306988E1,3.326023519E-1,9.253045082E0,7.384250641E0
3.163391339E1,1.966900229E0,5.922235966E0,1.995614052E0
3.165472638E1,8.901300430E-1,8.025527000E0,6.029912949E0
3.167553937E1,-8.853443712E-2,6.766902447E0,8.422735929E-1
3.169638287E1,1.648654819E0,6.812366009E0,8.374879360E-1
3.171719586E1,-5.838487148E-1,8.621339798E0,4.749752998E0
3.173803937E1,9.858429432E-1,9.789037704E0,4.003192425E0
3.175885235E1,1.555334777E-1,1.053320503E1,4.835894585E0
3.177966534E1,1.794616938E0,1.096630573E1,8.865407944E0
3.180050885E1,1.100698471E0,1.029870892E1,5.733202934E0
3.182132184E1,1.012163997E0,8.659625053E0,3.842873096E0
3.184216534E1,1.301695466E0,7.467999458E0,7.424928665E0
3.186297833E1,8.207381964E-1,4.268795490E0,3.333201885E0
3.188379132E1,5.383850932E-1,7.389036179E0,4.063013077E0
3.190460431E1,-2.823530734E-1,7.554141045E0,1.670190215E0
3.192544781E1,6.364908218E-1,8.066205025E0,3.926621914E0
3.194626080E1,-7.345965505E-1,8.817551613E0,3.261417150E0
3.196710431E1,1.859223247E0,9.142974854E0,3.014956474E0
3.198791730E1,-5.431707501E-1,1.071266651E1,3.912265062E0
3.200873028E1,7.824530005E-1,1.043270683E1,5.209175110E0
3.202954327E1,-6.604190469E-1,1.010249710E1,4.945964336E0
3.205035626E1,1.548156261E0,9.365508080E0,6.893722057E0
3.207119976E1,4.450650215E-1,1.012881851E1,5.838487148E0
3.209201275E1,1.234696507E0,9.061619759E0,5.106283665E0
3.211282574E1,1.320838094E0,9.355937004E0,7.441678524E0
3.213363873E1,1.007378340E0,6.470192432E0,2.222932339E0
3.215445172E1,1.280160069E0,6.953542709E0,7.348358154E0
3.217529522E1,3.278166950E-1,5.032105923E0,4.161118507E0
3.219610821E1,1.497906923E0,8.379665375E0,7.350750923E0
3.221692120E1,-6.412764788E-1,6.958328247E0,2.919243574E0
3.223773419E1,1.117448211E0,7.176074982E0,4.998606682E0
3.225857770E1,-4.043870270E-1,7.566105366E0,3.529413462E0
3.227939068E1,1.179661512E0,9.530612946E0,4.649254322E0
3.230020367E1,-7.298108935E-1,8.374878883E0,1.622333765E0
3.232101666E1,9.379864931E-1,7.393822193E0,2.502892494E0
3.234182965E1,-7.345965505E-1,9.054440498E0,3.091526747E0
3.236264264E1,1.062413216E0,1.049731255E1,4.680361271E0
3.238348614E1,-1.131805062E0,9.578469276E0,3.060420275E0
3.240429913E1,3.756731451E-1,8.152346611E0,3.541377544E0
3.242511212E1,-1.593619823E0,9.030512810E0,2.873780012E0
3.244595562E1,9.140582681E-1,9.114261627E0,4.378865242E0
3.246676861E1,-8.829515576E-1,9.226723671E0,3.902693748E0
3.248758160E1,1.071984529E0,9.375079155E0,3.653840065E0
3.250839459E1,-4.785645306E-1,8.525627136E0,3.227917671E0
3.252923810E1,5.455635786E-1,7.941778183E0,3.376272678E0
3.255005108E1,-1.098305583E0,7.767102242E0,1.371087432E0
3.257086407E1,-2.991028428E-1,7.759923935E0,3.409772158E0
3.259170758E1,-4.163511395E-1,8.676374435E0,4.225724697E0
3.261252057E1,5.024927258E-1,9.568898201E0,5.871986866E0
3.263333356E1,-4.546363056E-1,8.642875671E0,1.962114573E0
3.265414654E1,5.670989752E-1,8.264809608E0,4.421936035E0
3.267499005E1,2.560320199E-1,8.130811691E0,4.347758770E0
3.269580304E1,7.728816867E-1,9.186046600E0,6.199803352E0
3.271661602E1,9.906286001E-1,7.922635555E0,4.630111694E0
3.273742901E1,1.414158225E0,8.281558990E0,7.439285755E0
3.275824200E1,1.493121386E0,6.783652306E0,5.400600910E0
3.277908551E1,1.629512191E0,8.298309326E0,8.623732567E0
3.279989850E1,1.182054400E0,7.812565804E0,6.549155712E0
3.282071148E1,-2.584248483E-1,9.025727272E0,5.711667538E0
3.284152447E1,7.776673436E-1,6.972685337E0,4.175475597E0
3.286233746E1,-2.919243574E-1,9.140582085E0,3.393022537E0
3.288315045E1,1.024128079E0,8.468199730E0,-2.081755698E-1
3.290396344E1,-6.484549642E-1,8.719446182E0,7.417750359E-1
3.292477643E1,1.811366796E0,7.439285755E0,1.308874011E0
3.294558941E1,-5.503492355E-1,8.551948547E0,2.325823545E0
3.296640240E1,3.060420275E0,7.855636597E0,2.129612207E0
3.298724591E1,-4.570291340E-1,8.906085968E0,2.778067112E0
3.300805890E1,1.430907965E0,9.097511292E0,4.835894585E0
3.302887188E1,-2.055434704E0,9.008976936E0,3.883551121E0
3.304968487E1,1.244267821E0,9.609575272E0,8.666803360E0
3.307049786E1,-7.058826685E-1,8.786444664E0,7.188039303E0
3.309131085E1,1.653440475E0,9.657432556E0,9.391828537E0
3.311212384E1,1.098305583E0,7.499105930E0,7.623532772E0
3.313296734E1,9.906286001E-1,9.583254814E0,5.568098068E0
3.315378033E1,1.026520967E0,8.178668022E0,5.168496966E-1
3.317459332E1,-4.642075896E-1,8.590232849E0,1.488335729E0
3.319543683E1,2.096112728E0,7.092326164E0,-7.896314561E-2
3.321624981E1,-7.058826685E-1,8.042277336E0,-8.303094506E-1
3.323706280E1,2.486142635E0,7.508677483E0,4.520041943E0
3.325787579E1,-2.847459018E-1,9.300901413E0,6.391229153E0
3.327868878E1,2.876172781E0,1.092562866E1,1.081077290E1
3.329950177E1,7.298108935E-1,8.719446182E0,6.319444656E0
3.332034527E1,7.322037220E-1,9.250652313E0,4.917250633E0
3.334115826E1,1.088734269E0,6.659225464E0,1.502692580E0
3.336197125E1,-1.435693540E-2,8.736195564E0,6.125625968E-1
3.338278424E1,1.907079697E0,7.860422611E0,1.655833244E0
3.340359723E1,-6.412764788E-1,8.472985268E0,3.342773199E0
3.342444073E1,2.266003132E0,9.396614075E0,7.527820110E0
3.344528424E1,4.307080805E-1,9.037691116E0,7.649854183E0
3.346609723E1,1.639083505E0,9.068798065E0,8.683553696E0
3.348691022E1,1.603191197E-1,6.649653912E0,5.036891460E0
3.350772320E1,1.127019525E0,8.721838951E0,2.612962246E0
3.352853619E1,1.584048629E0,7.719245911E0,1.758724689E0
3.354934918E1,2.847459018E-1,8.343772888E0,2.435893536E0
3.357016217E1,1.947757602E0,9.473184586E0,5.568098068E0
3.359100567E1,-4.713860750E-1,8.712266922E0,6.027520180E0
3.361181866E1,2.593819857E0,9.095118523E0,9.477970123E0
3.363263165E1,4.546362907E-2,8.054241180E0,4.814359188E0
3.365344464E1,1.184447169E0,8.953942299E0,2.498106956E0
3.367425763E1,1.703689694E0,7.104290485E0,3.091526747E0
3.369507062E1,2.129612118E-1,7.635497093E0,4.666004181E0
3.371591412E1,2.639283419E0,1.018385315E1,8.470592499E0
3.373672711E1,-2.392822653E-1,8.403593063E0,5.379065514E0
3.375754010E1,1.895115495E0,8.377271652E0,5.632704735E0
3.377835309E1,8.973084688E-1,5.807380676E0,5.838487148E-1
3.379916607E1,6.915257573E-1,8.690732002E0,1.804188251E0
3.382000958E1,1.284945726E0,8.341380119E0,8.348558426E0
3.384082257E1,-5.240281820E-1,8.872586250E0,8.415556908E0
3.386163556E1,9.714859724E-1,1.024606609E1,4.254438877E0
3.388244854E1,1.016949654E0,8.506484032E0,2.474178553E0
3.390326153E1,3.421736360E-1,8.398807526E0,5.271388054E0
3.392410504E1,3.445664644E-1,9.178867340E0,6.594619274E0
3.394491803E1,-2.991028428E-1,9.808179855E0,3.055634499E0
3.396573102E1,7.513462901E-1,9.018548965E0,3.180061340E0
3.398654400E1,7.298108935E-1,7.379465103E0,3.237488985E0
3.400735699E1,6.053841114E-1,7.872386456E0,5.345565796E0
3.402816998E1,9.164510965E-1,9.324830055E0,6.398407936E0
3.404898297E1,9.379864931E-1,7.633104324E0,2.548356056E0
3.406979596E1,6.723831892E-1,8.286344528E0,3.385843992E0
3.409060894E1,9.667003751E-1,8.874979019E0,6.312266350E0
3.411145245E1,-6.125625968E-1,9.253045082E0,4.244867325E0
3.413226544E1,-9.332008660E-2,9.695717812E0,1.744367719E0
3.415307843E1,6.963114142E-1,9.092725754E0,5.151747227E0
3.417389142E1,-1.507478207E-1,9.367900848E0,7.401000500E0
3.419470440E1,2.344966233E-1,1.057627583E1,2.141576290E0
3.421551739E1,3.349951804E-1,8.317451477E0,2.749353170E0
3.423636090E1,-2.105683982E-1,8.233702660E0,8.898907661E0
3.425717389E1,4.211367965E-1,1.003071213E1,6.874579430E0
3.427798688E1,4.713860750E-1,9.590433121E0,1.722832322E0
3.429879986E1,1.158126116E0,8.630910873E0,5.563312531E0
3.431961285E1,-2.679961324E-1,7.630711555E0,6.867401123E0
3.434042584E1,9.092725813E-2,6.920042992E0,1.916650891E0
3.436126935E1,4.402793646E-1,7.429714203E0,2.727817893E-1
3.438208233E1,-3.589234129E-2,8.642875671E0,4.974678040E0
3.440289532E1,5.599204898E-1,7.965706348E0,3.833301783E0
3.442370831E1,1.890329868E-1,7.391428947E0,1.605584025E0
3.444452130E1,1.866401732E-1,6.678368092E0,4.546362877E0
3.446533429E1,-7.585247755E-1,7.039684296E0,4.261617184E0
3.448614728E1,5.120640397E-1,8.776873589E0,1.964507341E0
3.450696026E1,8.853443861E-1,9.645467758E0,7.348358154E0
3.452777325E1,-2.392822690E-2,9.121439934E0,8.386843681E0
3.454858624E1,8.446664214E-1,8.547162056E0,2.155933142E0
3.456942975E1,1.316052526E-1,6.486942291E0,1.404586911E0
3.459024273E1,4.043870270E-1,7.214360237E0,6.147161484E0
3.461105572E1,1.603191197E-1,7.805387497E0,3.756731510E0
3.463186871E1,6.771687865E-1,6.620940208E0,1.938186288E0
3.465268170E1,1.418943882E0,7.901100159E0,4.675575256E0
3.467349469E1,1.105484009E0,8.030312538E0,5.158925533E0
3.469430768E1,1.237089276E0,6.908079147E0,1.904686809E0
3.471512066E1,1.251446247E0,7.558926582E0,1.435693622E0
3.473596417E1,7.968099117E-1,7.465606689E0,7.891529083E0
3.475677716E1,7.250252366E-1,7.025327206E0,9.133403778E0
3.477759015E1,-7.178468257E-2,4.749752998E0,3.512663603E0
3.479840314E1,1.076770186E0,6.111268997E0,3.026920557E0
3.481924664E1,7.704889178E-1,7.228717327E0,4.800002098E0
3.484005963E1,2.488535494E-1,7.195217609E0,6.604190350E0
3.486087262E1,1.986042738E0,6.924828529E0,1.073180962E1
3.488171612E1,1.476371527E0,7.738388538E0,1.024606609E1
3.490252911E1,1.447657704E0,8.898907661E0,8.932407379E0
3.492334210E1,8.925228715E-1,8.149953842E0,5.058426857E0
3.494418560E1,1.478764415E0,7.843672752E0,5.012963295E0
3.496499859E1,2.507678032E0,5.139782906E0,3.005385160E0
3.498581158E1,1.562513232E0,6.008377552E0,3.699303865E0
3.500662457E1,8.662018180E-1,7.245467186E0,3.998406649E0
3.502743756E1,2.967100143E-1,9.497113228E0,6.838686943E0
3.504828106E1,7.824530005E-1,9.288937569E0,5.699703693E0
3.506909405E1,1.921436548E0,7.989634991E0,8.695517540E0
3.508990704E1,1.261017561E0,9.956535339E0,1.091605663E1
3.511072003E1,1.591227055E0,9.714859962E0,6.321837425E0
3.513156354E1,3.302095234E-1,8.599804878E0,5.431707382E0
3.515237652E1,1.131805062E0,7.836493969E0,3.369094372E0
3.517318951E1,6.245267391E-1,7.465606689E0,4.000799656E0
3.519400250E1,6.412764788E-1,7.381857872E0,5.560919762E0
3.521481549E1,5.527420044E-1,7.946564198E0,4.735395908E0
3.523565899E1,1.478764415E0,8.858229637E0,7.401000500E0
3.525647198E1,2.608176768E-1,5.278566837E0,1.663011789E0
3.527728497E1,1.380658627E0,5.036891460E0,1.808973908E0
3.529812848E1,7.417750359E-2,7.573283672E0,2.395215511E0
3.531894146E1,1.612762451E0,9.655039787E0,3.625126362E0
3.533975445E1,3.373879790E-1,9.430113792E0,3.108276606E0
3.536056744E1,2.151147604E0,7.570890903E0,7.015756130E0
3.538141095E1,8.662018180E-1,7.769495010E0,8.037490845E0
3.540222394E1,1.708475351E0,6.742974281E0,2.825923443E0
3.542303692E1,5.335994363E-1,7.566105366E0,6.312266350E0
3.544384991E1,1.387837082E-1,6.989434719E0,3.285345554E0
3.546466290E1,1.837687731E0,7.915457249E0,3.577269793E0
3.548547589E1,2.416750938E-1,9.056833267E0,4.845465660E0
3.550631939E1,2.368894339E0,9.590433121E0,8.137989998E0
3.552713238E1,2.225325108E-1,1.018385315E1,6.460621357E0
3.554791485E1,1.914258122E0,8.559126854E0,5.285745144E0
3.556875836E1,8.614161611E-1,7.707281590E0,9.638289452E0
3.558957135E1,1.170090318E0,4.161118507E0,3.596412420E0
3.561041485E1,1.299302697E0,7.965706348E0,6.051448345E0
3.563122784E1,-4.642075896E-1,7.635497093E0,3.275774240E0
3.565204083E1,1.670190215E0,8.013563156E0,4.764110088E0
3.567285382E1,-1.292124242E-1,9.456435204E0,4.962714195E0
3.569369732E1,1.478764415E0,9.913464546E0,6.326622963E0
3.571451031E1,-1.244267747E-1,1.000678444E1,6.750152588E0
3.573532330E1,1.423729420E0,8.343772888E0,4.742574692E0
3.575613629E1,8.566305041E-1,8.197810173E0,6.283552170E0
3.577694928E1,1.203589797E0,4.402793884E0,1.763510346E0
3.579779278E1,9.930213690E-1,7.420143127E0,6.233303070E0
3.581860577E1,-6.221339107E-1,5.589633465E0,-1.196411345E-2
3.583941876E1,9.140582681E-1,6.802794933E0,2.467000246E0
3.586026226E1,-1.349551916E0,7.362715244E0,2.141576290E0
3.588107525E1,1.605584025E0,9.669396400E0,3.890729666E0
3.590188824E1,3.110669553E-1,1.000199890E1,4.974678040E0
3.592270123E1,1.646261930E0,9.198010445E0,6.099305153E0
3.594351852E1,2.201396823E-1,9.863214493E0,7.326822758E0
3.596436202E1,1.292124271E0,8.539983749E0,5.948556900E0
3.598517501E1,4.857429862E-1,8.673981667E0,7.446464062E0
3.600598800E1,9.379864931E-1,5.661418438E0,4.285545349E0
3.602680099E1,5.048855543E-1,8.683553696E0,7.848458290E0
3.604761398E1,1.292124242E-1,5.931807518E0,-8.111668825E-1
3.606842696E1,9.332008660E-2,7.290930748E0,5.060820103E0
3.608923995E1,-2.895315289E-1,7.664210796E0,4.496113777E0
3.611005294E1,1.509871125E0,1.135633659E1,5.522634506E0
3.613089645E1,6.005984545E-1,1.024845982E1,5.402993679E0
3.615170943E1,9.188438654E-1,8.762516975E0,5.261816978E0
3.617252242E1,5.359922647E-1,9.767501831E0,5.046463013E0
3.619333541E1,1.787438512E0,9.525827408E0,7.637889862E0
3.621414840E1,-8.614161611E-2,9.324830055E0,5.833701611E0
3.623496139E1,1.268195987E0,4.888536453E0,1.998006940E0
3.625577438E1,5.503492355E-1,7.367500782E0,9.556933403E0
3.627658736E1,1.868794441E0,6.491727829E0,3.665804386E0
3.629740035E1,-2.895315289E-1,7.202396393E0,2.835494757E0
3.631824386E1,3.182454109E-1,5.740381718E0,2.878565550E0
3.633905685E1,5.599204898E-1,1.039442158E1,9.473184586E0
3.635986983E1,6.436693072E-1,9.226723671E0,1.643869162E0
3.638068282E1,1.148554921E0,8.334200859E0,5.192425251E0
3.640149581E1,1.122233868E0,7.479963779E0,6.008377552E0
3.642230880E1,1.622333765E0,7.156932354E0,6.372086525E0
3.644312179E1,1.476371527E0,6.929614544E0,2.368894339E0
3.646393478E1,1.383051515E0,5.802595139E0,5.089533806E0
3.648474776E1,1.210768223E0,8.953942299E0,5.790630817E0
3.650556075E1,1.629512191E0,6.745367050E0,5.869594097E0
3.652637374E1,1.354337573E0,8.336593628E0,9.781859398E0
3.654718673E1,1.227517962E0,4.984249592E0,3.072384357E0
3.656799972E1,1.579262912E-1,9.207581520E0,6.553941250E0
3.658881270E1,1.543370605E0,7.341179848E0,1.450050473E0
3.660962569E1,8.853443712E-2,7.089933395E0,5.769095421E0
3.663043868E1,-3.182454109E-1,9.121439934E0,4.264009953E0
3.665125167E1,7.992027402E-1,1.081555843E1,5.941378593E0
3.667206466E1,-2.871387303E-1,1.017906761E1,5.503491879E0
3.669287765E1,1.497906923E0,9.468399048E0,5.828916073E0
3.671369064E1,3.062812984E-1,1.094477081E1,5.419743061E0
3.673453414E1,1.847259045E0,9.159725189E0,4.730610371E0
3.675534713E1,1.476371527E0,9.176474571E0,8.008777618E0
3.677616012E1,2.249253273E0,7.623532772E0,3.639483213E0
3.679697310E1,1.316052526E-1,8.121239662E0,3.723232031E0
3.681778609E1,2.091326952E0,6.781259537E0,4.845465660E0
3.683859908E1,5.264210105E-1,9.355937004E0,6.692724705E0
3.685941207E1,2.163111687E0,7.975277901E0,3.766302824E0
3.688022506E1,-2.703889608E-1,7.453642368E0,7.580461979E0
3.690103805E1,2.297109842E0,7.633104324E0,6.630511761E0
3.692185104E1,4.091726840E-1,1.016949654E1,7.944170952E0
3.694266402E1,2.225325108E0,7.085147858E0,4.474578381E0
3.696347701E1,3.541377485E-1,8.633303642E0,8.025527000E0
3.698432052E1,2.273181438E0,6.716653347E0,3.156133175E0
3.700513351E1,6.197410822E-1,8.216953278E0,6.154339790E0
3.702594649E1,-2.536391914E-1,6.587440968E0,2.727817893E-1
3.704675948E1,5.264210105E-1,7.989634991E0,3.290131092E0
3.706757247E1,-2.416750938E-1,8.001599312E0,3.311666489E0
3.708841598E1,9.140582681E-1,9.518648148E0,4.680361271E0
3.710922896E1,-6.388836503E-1,6.745367050E0,7.417750359E-2
3.713004195E1,1.383051515E0,6.458228111E0,4.386044025E0
3.715085494E1,-1.674975902E-1,8.724231720E0,5.338387489E0
3.717166793E1,1.758724689E0,1.041835022E1,5.565705299E0
3.719251144E1,1.914258115E-2,1.054038334E1,6.649653912E0
3.721332442E1,1.820937991E0,8.781659126E0,6.860222340E0
3.723413741E1,4.043870270E-1,9.253045082E0,6.446264267E0
3.725495040E1,1.916650891E0,9.150154114E0,5.240281582E0
3.727579391E1,6.245267391E-1,1.029870892E1,3.706482172E0
3.729660690E1,2.646461725E0,8.267202377E0,4.874179840E0
3.731741988E1,6.987041831E-1,1.126301575E1,4.505684853E0
3.733823287E1,1.950150490E0,7.077969551E0,-9.571290575E-3
3.735904586E1,2.105683982E-1,8.767302513E0,3.967299938E0
3.737988937E1,2.170290232E0,7.513463020E0,3.529413462E0
3.740070235E1,1.292124242E-1,1.097587776E1,2.380858421E0
3.742154586E1,1.572084427E0,8.262416840E0,2.531606436E0
3.744235885E1,-3.780659735E-1,9.516255379E0,5.838487148E0
3.746317184E1,1.115055323E0,7.709674358E0,2.835494757E0
3.748398482E1,-1.021735311E0,1.010967541E1,8.781659007E-1
3.750482833E1,1.045663476E0,7.996813297E0,3.199203968E0
3.752564132E1,-7.896314859E-1,7.901100159E0,3.424129248E0
3.754645431E1,1.823330879E0,7.601997375E0,5.108676434E0
3.756726730E1,-1.435693651E-1,9.207581520E0,5.613562107E0
3.758808028E1,2.017149448E0,7.963313580E0,4.323830605E0
3.760889327E1,8.015955687E-1,7.645068169E0,5.587240696E0
3.762970626E1,2.053041935E0,6.470192432E0,5.393422127E0
3.765051925E1,-1.507478207E-1,9.219545364E0,5.225924492E0
3.767133224E1,2.069791555E0,7.267002583E0,6.491727829E0
3.769217574E1,-1.483550072E-1,8.973084450E0,8.193024635E0
3.771298873E1,2.340180635E0,4.996213913E0,4.656432629E0
3.773380172E1,4.498506486E-1,7.901100159E0,5.855237007E0
3.775461471E1,1.765903115E0,7.434499741E0,4.711467743E0
3.777542770E1,1.674975902E-1,8.401200294E0,5.151747227E0
3.779624068E1,2.239681959E0,5.917450428E0,3.919443607E0
3.781708419E1,3.948157430E-1,8.839086533E0,4.697110653E0
3.783789718E1,1.765903115E0,5.127819061E0,8.518448472E-1
3.785871017E1,3.349951804E-1,7.951349735E0,5.288137913E0
3.787952315E1,2.395215511E0,6.151947021E0,2.038684845E0
3.790033614E1,-4.618147612E-1,8.063812256E0,4.048655987E0
3.792117965E1,2.541177750E0,7.118647575E0,4.945964336E0
3.794199264E1,-1.129412293E0,8.350951195E0,4.469792843E0
3.796280562E1,2.593819857E0,7.970492363E0,4.938786030E0
3.798361861E1,-8.709874153E-1,8.200202942E0,5.048855782E0
3.800443160E1,3.206382275E0,8.427521706E0,7.240681171E0
3.802527511E1,-1.698904037E-1,9.877572060E0,5.596812248E0
3.804608810E1,2.414358139E0,7.470392227E0,5.632704735E0
3.806690108E1,-3.589234129E-2,8.805587769E0,6.510870457E0
3.808771407E1,2.060220242E0,6.486942291E0,3.122633457E0
3.810855758E1,-2.057827413E-1,7.326822758E0,4.421936035E0
3.812937057E1,2.519642353E0,5.735595703E0,5.924628735E0
3.815018356E1,6.891329288E-1,9.334401131E0,5.836094379E0
3.817102706E1,1.808973908E0,7.896314621E0,6.001199245E0
3.819184005E1,-5.742774159E-2,8.547162056E0,6.857829571E0
3.821265304E1,1.954936147E0,6.041877270E0,4.871787071E0
3.823349654E1,3.134597540E-1,8.102097511E0,3.991228104E0
3.825430953E1,2.163111687E0,6.494120598E0,4.003192425E0
3.827512252E1,4.067798331E-2,8.745766640E0,5.807380676E0
3.829593551E1,1.890329838E0,5.608776093E0,2.012363911E0
3.831674850E1,-3.110669553E-1,7.537391186E0,2.043470621E0
3.833756148E1,2.227717876E0,6.453442574E0,1.840080619E0
3.835837447E1,-9.595218897E-1,7.389036179E0,1.988435626E0
3.837918746E1,2.084148407E0,6.209374905E0,3.838087559E0
3.840003097E1,-1.220339537E-1,8.647661209E0,3.579662561E0
3.842084396E1,1.701296926E0,7.690532207E0,2.256431818E0
3.844165694E1,1.531406492E-1,7.908278942E0,4.393222332E0
3.846246993E1,1.832902193E0,7.140182972E0,3.151347399E0
3.848328292E1,-3.541377485E-1,1.057149029E1,4.065405846E0
3.850409591E1,2.081755638E0,8.877371788E0,3.529413462E0
3.852493941E1,-1.100698471E0,9.623932838E0,3.634697676E0
3.854575240E1,1.320838094E0,6.807580471E0,1.186840057E0
3.856653487E1,-1.100698471E0,1.023170948E1,3.696911097E0
3.858737838E1,2.249253273E0,9.327222824E0,5.958128572E-1
3.860819137E1,-1.842473447E-1,8.130811691E0,4.331008911E0
3.862900436E1,2.464607239E0,7.207181931E0,2.457428932E0
3.864981734E1,-3.182454109E-1,9.006584167E0,2.854637384E0
3.867063033E1,3.086741209E0,7.233502865E0,2.624926329E0
3.869147384E1,-3.134597540E-1,9.698110580E0,4.438685894E0
3.871228683E1,2.579462767E0,9.451649666E0,5.075176716E0
3.873309981E1,6.939185411E-2,8.635697365E0,4.560719967E0
3.875391280E1,1.339980721E0,7.195217609E0,3.924229145E0
3.877472579E1,-1.746760458E-1,9.399007797E0,4.622933388E0
3.879553878E1,8.303094506E-1,9.116654396E0,4.374079704E0
3.881638228E1,-8.709874153E-1,8.769695282E0,4.654039860E0
3.883719527E1,1.284945726E0,8.989834785E0,7.039684296E0
3.885800826E1,-1.323230863E0,9.032905579E0,3.816552162E0
3.887882125E1,1.557727575E0,8.846264839E0,5.484349728E0
3.889963424E1,-1.667797327E0,8.097311974E0,3.409772158E0
3.892044723E1,3.445664644E-1,9.157332420E0,4.443471432E0
3.894126022E1,-6.532405615E-1,8.319844246E0,1.823330879E0
3.896210372E1,1.555334777E-1,8.970691681E0,7.582854748E0
3.898291671E1,9.427721500E-1,6.979863644E0,4.527220249E0
3.900372970E1,4.785645287E-3,7.812565804E0,6.697510719E0
3.902454269E1,1.000199914E0,6.955935478E0,6.214160442E0
3.904538619E1,3.421736360E-1,9.226723671E0,6.843472958E0
3.906619918E1,1.217946768E0,6.752545357E0,3.292523861E0
3.908701217E1,5.503492355E-1,6.764509678E0,7.812565804E0
3.910782516E1,2.873780012E0,5.840879917E0,8.693124771E0
3.912866866E1,1.143769264E0,9.080761909E0,7.523034573E0
3.914948165E1,2.584248543E0,6.556334019E0,4.151547432E0
3.917029464E1,5.120640397E-1,8.013563156E0,9.178867340E0
3.919113815E1,2.486142635E0,6.565905571E0,7.188039303E0
3.921195113E1,-3.278166950E-1,1.033938694E1,5.967699528E0
3.923276412E1,2.033899307E0,8.310273170E0,5.929414749E0
3.925357711E1,-7.369893789E-1,8.793622971E0,8.729017258E0
3.927439010E1,2.696711063E0,6.400800705E0,6.092126369E0
3.929523360E1,-1.289731383E0,9.717252731E0,-1.052841991E-1
3.931604659E1,9.284151793E-1,5.967699528E0,-6.364908218E-1
3.933685958E1,-1.210768223E0,9.501898766E0,4.048655987E0
3.935767257E1,2.187039852E0,5.718846321E0,-2.584248483E-1
3.937851607E1,-9.284151793E-1,9.611968994E0,-2.321037948E-1
3.939932906E1,3.448057413E0,6.187839508E0,3.067598581E0
3.942014205E1,-5.934200287E-1,8.018348694E0,4.905286312E0
3.944095504E1,2.187039852E0,6.738188744E0,2.811566591E0
3.946179854E1,-5.120640397E-1,8.642875671E0,1.890329868E-1
3.948261153E1,1.311266780E0,6.623332977E0,3.414557934E0
3.950342452E1,-7.178468108E-1,6.391229153E0,3.605983734E0
3.952423751E1,8.662018180E-1,9.544969559E0,6.884150982E0
3.954505050E1,6.795616150E-1,9.836894035E0,6.709474564E0
3.956586349E1,1.339980721E0,1.064088249E1,1.054516983E1
3.958667648E1,6.915257573E-1,6.092126369E0,7.724031448E0
3.960748946E1,8.542376757E-1,1.062413216E1,9.434899330E0
3.962830245E1,1.722832322E0,7.408178806E0,6.226124287E0
3.964911544E1,-8.374879509E-2,9.714859962E0,7.334001541E0
3.966995895E1,1.529013634E0,6.558726788E0,3.574877024E0
3.969077193E1,-6.460621357E-1,8.537590981E0,4.539184570E0
3.971158492E1,2.191825628E0,7.073183537E0,8.159525394E-1
