"Time (s)","Acceleration x (m/s^2)","Acceleration y (m/s^2)","Acceleration z (m/s^2)"
4.261084000E-2,4.962115884E-1,8.704191208E0,-7.256234884E-1
6.228740300E-2,-4.516452923E-2,8.979664803E0,-1.080060363E0
9.562073600E-2,1.007976532E-1,8.031209946E0,-4.357928336E-1
1.289540690E-1,1.103689447E-1,9.137890816E0,-8.165507317E-1
1.622874020E-1,3.427718580E-1,9.712766647E0,-6.056832075E-1
1.956207350E-1,-2.751746178E-1,8.747262001E0,-4.477569461E-1
2.289540680E-1,-1.579262912E-1,8.888737679E0,-3.541377485E-1
2.622874010E-1,-1.483550072E-1,9.362815857E0,-3.206382394E-1
2.956207340E-1,1.079761237E-1,7.487142086E0,-3.661018610E-1
3.289540670E-1,-5.171487927E-1,9.492327690E0,-1.087238789E0
3.622874000E-1,-4.525425732E-1,9.516255379E0,-2.656033039E-1
3.956207330E-1,-2.847459018E-1,9.487542152E0,-4.549354017E-1
4.289540660E-1,-4.573282301E-1,8.720941544E0,-3.062812984E-1
4.622873990E-1,-4.573282301E-1,8.720941544E0,-3.062812984E-1
4.956207320E-1,-2.841476910E-2,8.927022934E0,-1.139880896E0
5.289540650E-1,5.054837838E-2,8.455039024E0,-4.597210586E-1
5.622873980E-1,-2.656033039E-1,8.368897438E0,-6.248258352E-1
5.956207310E-1,6.879364848E-1,8.457431793E0,3.475574851E-1
6.289540640E-1,-9.675976634E-1,7.357929707E0,-9.652048349E-1
6.622873970E-1,-1.531406492E-1,9.178568840E0,-1.918445587E0
6.956207300E-1,-9.604191780E-1,1.051047325E1,-6.873382926E-1
7.289540630E-1,1.097408295E0,1.186630630E1,-9.795617461E-1
7.622873960E-1,8.386843204E-1,1.282672596E1,-7.998009920E-1
7.956207290E-1,2.398804724E-1,9.945169449E0,-1.223928809E0
8.289540620E-1,-5.267201066E-1,9.700801849E0,1.438684613E-1
8.622873950E-1,3.044866920E-1,8.450253487E0,-3.110669553E-1
8.956207280E-1,-4.238287210E-1,5.491827011E0,-8.739784956E-1
9.289540610E-1,-3.349951804E-1,7.901698589E0,-1.278963685E0
9.622873940E-1,-5.985047817E-1,4.648656368E0,4.097708687E-2
9.956207270E-1,4.576273263E-2,1.219920826E1,1.392024517E0
1.028954060E0,-1.564008713E0,7.412964344E0,2.089233160E0
1.062287393E0,8.458628058E-1,1.127946663E1,-1.331605792E0
1.095620726E0,-9.098708034E-1,6.411568165E0,-1.209571838E0
1.128954059E0,-5.075774789E-1,7.578368187E0,-1.089631557E0
1.162287392E0,9.128618240E-1,1.252253819E1,-5.769693851E-1
1.195620725E0,3.140579537E-2,7.056134701E0,-9.675976634E-1
1.228954058E0,-3.541377485E-1,1.014616585E1,-2.129312992E0
1.262287391E0,-4.429712892E-1,5.994917870E0,2.183450572E-2
1.295620724E0,-9.098708034E-1,8.811868668E0,-2.057827413E-1
1.328954057E0,1.811366796E0,1.255603790E1,-6.897311211E-1
1.362287390E0,-8.333004713E-1,8.977272034E0,8.410771489E-1
1.395620723E0,5.679962635E-1,9.794121742E0,-6.873382926E-1
1.428954056E0,-2.464607358E-1,1.185912800E1,-3.541377485E-1
1.462287389E0,1.382453322E0,1.034267712E1,-7.710871100E-1
1.495620722E0,-5.793621540E-1,8.124529839E0,-9.747761488E-1
1.528954055E0,1.674676776E0,1.095344448E1,-2.105384827E0
1.562287388E0,5.129613280E-1,8.390432358E0,-1.755733609E0
1.595620721E0,1.008873820E0,7.135097980E0,1.465603895E-2
1.628954054E0,-1.986042857E-1,9.504291534E0,3.332005441E-1
1.662287387E0,-3.206382394E-1,8.917451859E0,8.985049129E-1
1.695620720E0,3.308077157E-1,1.082183933E1,-6.487540603E-1
1.728954053E0,-2.249253243E-1,9.058628082E0,-4.238287210E-1
1.762287386E0,9.969097376E-1,9.403793335E0,-1.547258973E0
1.795620719E0,-3.182454109E-1,8.816654205E0,7.956135273E-1
1.828954052E0,1.564606905E0,9.410971642E0,-3.828516304E-1
1.862287385E0,3.379862010E-2,8.862417221E0,-5.458626747E-1
1.895620718E0,-7.064808607E-1,6.428617001E0,2.685943544E-1
1.928954051E0,1.154836059E0,7.479963779E0,6.903293133E-1
1.962287384E0,4.237987995E0,1.278604794E1,-1.444068432E0
1.995620717E0,4.237987995E0,1.278604794E1,-1.444068432E0
2.028954050E0,2.496312141E0,8.193922043E0,-1.623829246E0
2.062287383E0,-2.024028778E0,9.556933403E0,5.536393523E-1
2.095620716E0,8.721838593E-1,1.153101254E1,2.231307179E-1
2.128954049E0,8.721838593E-1,1.153101254E1,2.231307179E-1
2.162287382E0,8.721838593E-1,1.153101254E1,2.231307179E-1
2.195620715E0,9.370891452E-1,8.253742218E0,-1.638186216E0
2.228954048E0,5.009972453E-1,8.610871315E0,-4.381856322E-1
2.262287381E0,1.028016448E0,1.308784294E1,-5.315057039E-1
2.295620714E0,1.238883972E0,6.823731899E0,2.829512656E-1
2.328954047E0,-5.386841893E-1,1.011984539E1,4.097708687E-2
2.362287380E0,-2.919243574E-1,7.676474094E0,-3.326023519E-1
2.395620713E0,-2.012064695E0,5.041378021E0,-6.176473498E-1
2.428954046E0,3.762713671E-1,1.324128246E1,-2.201097727E0
2.462287379E0,2.802892685E0,9.489934921E0,2.058126688E0
2.495620712E0,1.835294962E0,9.267103195E0,9.969097376E-1
2.528954045E0,-3.804588020E-1,1.159322548E1,-2.280359983E0
2.562287378E0,1.631605983E0,1.144935703E1,6.278168559E-1
2.595620711E0,6.421737671E-1,1.048893833E1,5.895316601E-1
2.628954044E0,7.812566161E-1,1.213938713E1,-1.420140266E0
2.662287377E0,-8.584251255E-2,1.193809128E1,-3.038884699E-1
2.695620710E0,-3.349951804E-1,8.768797874E0,1.770688772E0
2.728954043E0,1.507179141E0,1.089362431E1,7.405785918E-1
2.762287376E0,1.543071508E0,1.192612743E1,8.404789865E-2
2.795620709E0,2.901297510E-1,6.864409924E0,3.475574851E-1
2.828954042E0,1.914258122E0,7.762914658E0,-7.782655358E-1
2.862287375E0,-1.866401732E-1,1.085773182E1,-9.532406926E-1
2.895620708E0,-1.386640668E0,4.057030678E0,8.171489239E-1
2.928954041E0,8.434699774E-1,7.803592682E0,-5.578267574E-1
2.962287374E0,5.536393523E-1,1.026610661E1,-6.080760360E-1
2.995620707E0,1.489532143E-1,1.235743332E1,-4.070789516E-1
3.028954040E0,5.392823815E-1,1.039771175E1,5.823532343E-1
3.062287373E0,1.770688772E0,1.474098396E1,-1.650150299E0
3.095620706E0,-5.985047817E-1,8.864809990E0,1.044766188E0
3.128954039E0,3.509672642E0,1.126271725E1,-8.859425783E-1
3.162287372E0,7.166503668E-1,1.009113121E1,-2.919243574E-1
3.195620705E0,-3.320041299E-2,8.335397720E0,1.489532143E-1
3.228954038E0,9.514461160E-1,9.058628082E0,-8.500502706E-1
3.262287371E0,1.344168067E0,1.052004433E1,-1.899302959E0
3.295620704E0,-1.473081470E0,7.039385319E0,-1.698904037E-1
3.328954037E0,1.092622638E0,9.238389015E0,-1.269392371E0
3.362287370E0,-6.921239495E-1,8.531609535E0,-7.256234884E-1
3.395620703E0,5.344967842E-1,9.401400566E0,-4.429712892E-1
3.428954036E0,-5.865406394E-1,9.418149948E0,-3.637090325E-1
3.462287369E0,5.344967842E-1,7.537690639E0,-1.159023523E0
3.495620702E0,-1.944766641E0,8.831010818E0,-4.525425732E-1
3.528954035E0,9.729815125E-1,8.742476463E0,1.968096644E-1
3.562287368E0,1.068694472E0,9.916455269E0,-5.434698462E-1
3.595620701E0,6.038886309E-1,1.023021412E1,1.944168359E-1
3.628954034E0,-4.740779996E-1,6.620042801E0,1.813759565E0
3.662287367E0,3.810569942E-1,1.049611664E1,-2.110170364E0
3.695620700E0,-3.804588020E-1,8.083851814E0,-1.056132078E0
3.728954033E0,-6.296114326E-1,6.842874527E0,5.057829022E-1
3.762287366E0,6.014958024E-1,9.623932838E0,-1.333998680E0
3.795620699E0,-4.716851711E-1,7.724330425E0,-1.013061285E0
3.828954032E0,-1.025922745E-1,8.241778374E0,-3.397808075E-1
3.862287365E0,2.662015259E-1,9.461220741E0,-1.411765367E-1
3.895620698E0,1.133300662E0,9.779765129E0,-2.033899277E-1
3.928954031E0,6.927221417E-1,8.649156570E0,-4.788636267E-1
3.962287364E0,3.212364316E-1,9.643374443E0,-1.070489049E0
3.995620697E0,7.166503668E-1,9.434899330E0,-8.572286963E-1
4.028954030E0,1.151545867E-1,9.334101677E0,-4.836492836E-1
4.062287363E0,7.980063558E-1,1.062293625E1,-3.708875179E-1
4.095620696E0,7.262216806E-1,8.773583412E0,-5.952146277E-2
4.128954029E0,1.585244983E-1,1.032831955E1,6.445665956E-1
4.162287362E0,1.698604941E0,9.025128365E0,-3.559323773E-2
4.195620695E0,1.896311939E-1,9.145069122E0,-8.835497499E-1
4.228954028E0,4.459623098E-1,8.903095245E0,-4.238287210E-1
4.262287361E0,-1.698904037E-1,7.786843300E0,6.807580590E-1
4.295620694E0,1.981257200E0,1.053918743E1,-7.950153351E-1
4.328954027E0,-3.062812984E-1,8.086244583E0,2.662015259E-1
4.362287360E0,1.820937991E0,8.134101868E0,-3.278166950E-1
4.395620693E0,1.944168471E-2,9.267103195E0,-9.532406926E-1
4.428954026E0,1.394417405E0,1.129621696E1,-1.417747378E0
4.462287359E0,-1.962114573E-1,9.466006279E0,-9.723833203E-1
4.495620692E0,1.262812138E0,9.173783302E0,-1.339980662E-1
4.528954025E0,1.262812138E0,9.173783302E0,-1.339980662E-1
4.562287358E0,5.488536954E-1,8.002197266E0,-5.362913609E-1
4.595620691E0,1.680957973E-1,7.920841217E0,-4.142574072E-1
4.628954024E0,1.183549881E0,1.026849937E1,-3.565305769E-1
4.662287357E0,6.565307379E-1,8.831010818E0,-5.195416212E-1
4.695620690E0,1.585244983E-1,7.686045647E0,-3.804588020E-1
4.728954023E0,1.585244983E-1,7.686045647E0,-3.804588020E-1
4.762287356E0,-2.943171859E-1,8.811868668E0,1.465603895E-2
4.795620689E0,5.919244885E-1,1.007438183E1,-6.320042610E-1
4.828954022E0,1.207777262E0,8.799904823E0,-4.070789516E-1
4.862287355E0,5.512465239E-1,9.669695854E0,-6.487540603E-1
4.895620688E0,6.517450809E-1,8.701798439E0,-5.147559643E-1
4.928954021E0,4.435695112E-1,9.477970123E0,-7.256234884E-1
4.962287354E0,1.226321608E-2,8.991629601E0,-5.243272781E-1
4.995620687E0,2.877369225E-1,8.836095810E0,-2.440679073E-1
5.028954020E0,2.685943544E-1,9.089735031E0,-8.021938205E-1
5.062287353E0,7.926224917E-2,9.415757179E0,-1.073779166E-1
5.095620686E0,1.466202021E0,9.782157898E0,-7.627122104E-2
5.128954019E0,7.142575383E-1,1.005045319E1,-3.876372576E-1
5.162287352E0,2.733799815E-1,7.719544888E0,-2.584248483E-1
5.195620685E0,9.753743410E-1,1.073091221E1,-6.681957245E-1
5.228954018E0,4.698905349E-1,7.087241650E0,-3.110669553E-1
5.262287351E0,3.762713671E-1,9.889835358E0,-5.003990531E-1
5.295620684E0,3.786641955E-1,7.839485168E0,-4.740779996E-1
5.328954017E0,-8.584251255E-2,8.337790489E0,-3.661018610E-1
5.362287350E0,6.014958024E-1,8.737690926E0,-7.375875711E-1
5.395620683E0,-4.022932947E-1,9.087342262E0,-6.487540603E-1
5.428954016E0,9.361918271E-2,1.010548782E1,-8.069794178E-1
5.462287349E0,6.951149702E-1,8.452646255E0,-3.661018610E-1
5.495620682E0,1.944168359E-1,1.106142044E1,-1.357926846E0
5.528954015E0,1.944168471E-2,8.783154488E0,-6.200401783E-1
5.562287348E0,1.199402362E-1,9.686445236E0,-8.524430394E-1
5.595620681E0,9.601201117E-2,8.891130447E0,-4.334000051E-1
5.628954014E0,9.601201117E-2,8.891130447E0,-4.334000051E-1
5.662287347E0,3.834498227E-1,8.943773270E0,-7.902296782E-1
5.695620680E0,-3.876372576E-1,9.176176071E0,-5.482555032E-1
5.728954013E0,2.446661144E-1,9.149854660E0,-3.349951804E-1
5.762287346E0,-5.171487927E-1,9.159425735E0,-3.517449200E-1
5.795620679E0,7.716853023E-1,9.403793335E0,-6.559324861E-1
5.828954012E0,-2.703889608E-1,8.517251968E0,-1.077667475E0
5.862287345E0,8.123632669E-1,1.048893833E1,-1.528116345E0
5.895620678E0,2.255235314E-1,8.938986778E0,-8.739784956E-1
5.928954011E0,7.094719410E-1,8.998807907E0,-4.429712892E-1
5.962287344E0,5.727819204E-1,9.180961609E0,-3.975076675E-1
5.995620677E0,6.086742878E-1,9.664909363E0,6.251249462E-2
6.028954010E0,-1.424925923E0,8.131709099E0,-1.579262912E-1
6.062287343E0,6.158527136E-1,9.537791252E0,-2.464607358E-1
6.095620676E0,1.657029688E-1,9.731908798E0,-1.698904037E-1
6.095620676E0,1.657029688E-1,9.731908798E0,-1.698904037E-1
6.162287342E0,-2.871387303E-1,9.384650230E0,8.644071966E-2
6.195620675E0,-4.932205677E-1,8.064709663E0,-1.722832322E-1
6.228954008E0,-4.932205677E-1,8.064709663E0,-1.722832322E-1
6.262287341E0,-4.932205677E-1,8.064709663E0,-1.722832322E-1
6.295620674E0,-4.932205677E-1,8.064709663E0,-1.722832322E-1
6.328954007E0,-2.321037948E-1,8.967700958E0,-4.022932947E-1
6.362287340E0,2.183450572E-2,8.828618050E0,-1.142273664E0
6.395620673E0,-3.254238665E-1,9.576076508E0,-7.710871100E-1
6.428954006E0,5.294119939E-2,8.692227364E0,-5.673980713E-1
6.462287339E0,-2.943171859E-1,8.828618050E0,-4.262215197E-1
6.495620672E0,1.393819153E-1,9.731908798E0,-6.367899179E-1
6.528954005E0,-3.445664644E-1,9.717552185E0,-1.017846942E0
6.562287338E0,-6.879365072E-3,8.699405670E0,-3.110669553E-1
6.595620671E0,-7.866404206E-2,8.517251968E0,-2.919243574E-1
6.628954004E0,-2.344966233E-1,9.736694336E0,-3.975076675E-1
6.662287337E0,-5.315057039E-1,8.193922043E0,-7.064808607E-1
6.695620670E0,-5.578267574E-1,9.092127800E0,-6.032904387E-1
6.728954003E0,4.339981973E-1,1.009352398E1,-1.103988528E0
6.762287336E0,-4.908277392E-1,8.306683540E0,4.097708687E-2
6.795620669E0,5.273182988E-1,1.056311512E1,-8.309076428E-1
6.828954002E0,-6.104688644E-1,9.597611427E0,-2.703889608E-1
6.862287335E0,-1.193420291E-1,9.698409081E0,-6.559324861E-1
6.895620668E0,-4.070789516E-1,8.982057571E0,-3.589234054E-1
6.928954001E0,-1.866401732E-1,8.347361565E0,-6.296114326E-1
6.962287334E0,2.709871531E-1,8.778368950E0,-7.399803996E-1
6.995620667E0,-5.243272781E-1,7.305287361E0,-3.541377485E-1
7.028954000E0,8.554341197E-1,8.376075745E0,-1.060917735E0
7.062287333E0,-5.697908998E-1,9.032307625E0,-6.535396576E-1
7.095620666E0,2.542374134E-1,9.422935486E0,-7.016952634E-1
7.128953999E0,-6.669992954E-2,9.592825890E0,-4.788636267E-1
7.162287332E0,-1.151844978E0,1.154776192E1,-1.075274706E0
7.195620665E0,2.111666054E-1,9.521040916E0,-9.317052960E-1
7.228953998E0,-2.368894368E-1,1.047697353E1,-3.469592929E-1
7.262287331E0,-9.780662507E-2,8.756834030E0,1.116550922E0
7.295620664E0,8.769695163E-1,9.027522087E0,-9.317052960E-1
7.328953997E0,9.945169091E-1,8.697012901E0,-1.379462242E0
7.362287330E0,-2.737688303E0,8.934201241E0,-7.686942816E-1
7.395620663E0,-2.416750938E-1,1.222313595E1,-2.931805849E0
7.428953996E0,-1.791625977E0,6.543472767E0,2.153839588E0
7.462287329E0,-1.132702470E0,8.910273552E0,-3.828516304E-1
7.495620662E0,1.020837903E0,1.161476135E1,-1.585544109E0
7.528953995E0,-1.489831209E0,6.138487339E0,1.540678620E0
7.562287328E0,2.350948304E-1,9.293423653E0,1.176371455E0
7.595620661E0,-1.068096161E0,1.038335514E1,1.171585798E0
7.628953994E0,1.607677698E0,1.029960632E1,1.007976532E-1
7.662287327E0,-1.127916813E0,7.123134136E0,-1.080060363E0
7.695620660E0,-9.194421172E-1,5.638088226E0,3.236292601E-1
7.728953993E0,-1.698904037E-1,8.002197266E0,8.602197170E-1
7.762287326E0,-7.567301393E-1,8.589336395E0,-1.995015860E0
7.795620659E0,-5.219344497E-1,9.394221306E0,-2.177468538E-1
7.828953992E0,-5.458626747E-1,9.937990189E0,1.223330572E-1
7.862287325E0,2.662015148E-2,1.053679466E1,-1.367498159E0
7.895620658E0,1.465603895E-2,1.171047401E1,-1.377069473E0
7.928953991E0,-7.758727670E-1,8.167600632E0,-6.681957245E-1
7.962287324E0,6.251249462E-2,9.159425735E0,-7.112665176E-1
7.995620657E0,-2.536391914E-1,6.229713917E0,-8.500502706E-1
8.028953990E0,-6.849454641E-1,8.258528709E0,-2.362912335E-2
8.062287323E0,-6.849454641E-1,8.258528709E0,-2.362912335E-2
8.095620656E0,-6.849454641E-1,8.258528709E0,-2.362912335E-2
8.128953989E0,-7.160521746E-1,8.426324844E0,-6.610172391E-1
8.162287322E0,6.783652306E-1,9.286245346E0,-7.016952634E-1
8.195620655E0,-4.995017126E-2,1.111406326E1,-1.207179070E0
8.228953988E0,4.268197417E-1,9.554540634E0,-5.482555032E-1
8.262287321E0,-1.097707376E-1,1.046979523E1,-5.506483316E-1
8.295620654E0,-5.291129351E-1,9.796515465E0,-6.634100676E-1
8.328953987E0,2.279163599E-1,9.906884193E0,-4.381856322E-1
8.362287320E0,6.014958024E-1,1.064207840E1,-5.171487927E-1
8.395620653E0,-9.484550953E-1,1.081226826E1,-6.191428751E-2
8.428953986E0,7.980063558E-1,9.774979591E0,4.336991161E-2
8.462287319E0,4.579264224E-1,9.037093163E0,-9.723833203E-1
8.495620652E0,-1.784447432E0,7.484749317E0,-6.415755749E-1
8.528953985E0,1.079761237E-1,8.855237961E0,-8.931210637E-1
8.562287318E0,1.079761237E-1,8.855237961E0,-8.931210637E-1
8.595620651E0,-2.584248483E-1,9.552147865E0,-7.782655358E-1
8.628953984E0,-1.525723577E0,7.990232944E0,-5.434698462E-1
8.662287317E0,-2.464607358E-1,9.470791817E0,-8.356932998E-1
8.695620650E0,-1.938186288E-1,1.024457073E1,-9.580263495E-1
8.728953983E0,-1.938186288E-1,1.024457073E1,-9.580263495E-1
8.762287316E0,-1.938186288E-1,1.024457073E1,-9.580263495E-1
8.795620649E0,-4.262215197E-1,9.125926018E0,-2.656033039E-1
8.828953982E0,1.425524116E0,1.110688496E1,-1.435693651E-1
8.862287315E0,-1.219143152E0,8.184350967E0,1.414756328E-1
8.895620648E0,-4.037888348E-2,9.482755661E0,-1.068096161E0
8.928953981E0,-4.037888348E-2,9.482755661E0,-1.068096161E0
8.928953981E0,-2.775973320E0,8.526823044E0,-3.493520916E-1
8.995620647E0,-3.541377485E-1,8.792725563E0,6.086742878E-1
9.028953980E0,-3.014956415E-1,9.995418549E0,5.751747489E-1
9.062287313E0,-5.434698462E-1,9.408578873E0,6.349952817E-1
9.095620646E0,2.901297435E-2,9.568898201E0,-7.280163169E-1
9.128953979E0,-2.823530734E-1,8.311469078E0,-1.555334777E-1
9.162287312E0,-1.651047617E-1,8.955737114E0,-2.273181528E-1
9.195620645E0,4.052843451E-1,7.956733704E0,2.015953064E-1
9.228953978E0,5.533402413E-2,7.935198307E0,3.355933726E-1
9.262287311E0,-6.032904387E-1,8.428717613E0,-7.112665176E-1
9.295620644E0,-6.678966284E-1,8.356932640E0,1.226321608E-2
9.328953977E0,-4.740779996E-1,9.736694336E0,6.490531564E-2
9.362287310E0,4.076771438E-1,1.003370380E1,4.172484577E-1
9.395620643E0,2.757728100E-1,1.077159023E1,-6.032904387E-1
9.428953976E0,4.339981973E-1,9.446864128E0,-7.627122104E-2
9.462287309E0,4.339981973E-1,9.446864128E0,-7.627122104E-2
9.495620642E0,4.339981973E-1,9.446864128E0,-7.627122104E-2
9.528953975E0,1.708176255E0,1.026371384E1,3.547359705E-1
9.562287308E0,-5.530411601E-1,8.400003433E0,2.087737769E-1
9.595620641E0,1.401595831E0,9.926026344E0,-4.429712892E-1
9.628953974E0,1.013659477E0,1.017757225E1,-9.074779749E-1
9.628953974E0,1.013659477E0,1.017757225E1,-9.074779749E-1
9.695620640E0,8.362914920E-1,8.107780457E0,9.343972206E-1
9.728953973E0,1.246062398E0,1.138953686E1,-2.871387303E-1
9.762287306E0,8.793623447E-1,1.131057358E1,2.901297435E-2
9.795620639E0,-5.712864175E-2,6.716054916E0,8.195417523E-1
9.795620639E0,-5.712864175E-2,6.716054916E0,8.195417523E-1
9.862287305E0,-2.177468538E-1,7.182954311E0,7.788637877E-1
9.895620638E0,8.315058947E-1,1.079791164E1,-8.823533356E-2
9.928953971E0,-8.883354068E-1,1.079073238E1,-3.798605874E-2
9.962287304E0,-5.769693851E-1,8.050353050E0,6.969095767E-2
9.995620637E0,-4.238287210E-1,8.603693008E0,-4.310071766E-1
1.002895397E1,5.943173170E-1,1.272383404E1,-5.626124144E-1
1.006228730E1,1.217348576E0,5.381757259E0,5.656034350E-1
1.009562064E1,1.028016448E0,9.578469276E0,-7.519445419E-1
1.012895397E1,-1.446461320E0,7.932805061E0,5.225326419E-1
1.016228730E1,-9.314061999E-1,7.542476177E0,-2.059921265E0
1.019562064E1,-4.381856322E-1,8.088638306E0,3.068794906E-1
1.022895397E1,4.507479668E-1,9.233603477E0,-6.897311211E-1
1.026228730E1,-1.892124534E0,9.952347755E0,-1.115952611E0
1.029562063E1,6.302096844E-1,8.922237396E0,6.326025128E-1
1.032895397E1,-2.241775751E0,8.193922043E0,-3.320041299E-2
1.036228730E1,3.864109516E0,1.044108200E1,-3.708875179E-1
1.039562063E1,-1.362712502E0,9.710372925E0,1.382453322E0
1.042895397E1,-1.170987606E0,8.035995483E0,2.048555374E0
1.046228730E1,-3.669692516E0,5.434399128E0,7.334001660E-1
1.049562063E1,-3.652942896E0,6.584150791E0,-2.416750938E-1
1.052895397E1,3.143271685E0,1.193330574E1,-2.220240355E0
1.056228730E1,3.332005441E-1,9.077771187E0,9.200403094E-1
1.059562063E1,3.931407690E0,1.013420200E1,-1.149452209E0
1.062895396E1,-3.224029303E0,6.857231617E0,-6.191428751E-2
1.066228730E1,9.897312522E-1,8.982057571E0,2.925225794E-1
1.069562063E1,-1.722832322E-1,1.149003506E1,-5.434698462E-1
1.072895396E1,-1.877767563E0,8.064709663E0,1.109372377E0
1.076228730E1,-1.531406492E-1,7.904091358E0,6.589235067E-1
1.079562063E1,-1.645065658E-2,9.082556725E0,-1.233500123E0
1.082895396E1,-1.607079506E0,7.817949772E0,1.430309772E0
1.086228730E1,7.980063558E-1,8.682656288E0,1.837687731E0
1.089562063E1,-1.571187139E0,9.334101677E0,-1.901695848E0
1.092895396E1,-3.837190151E0,5.613861084E0,-2.249253243E-1
1.096228729E1,2.638086975E-1,9.623932838E0,1.044766188E0
1.099562063E1,-1.360319614E0,1.121695423E1,-9.062815458E-2
1.102895396E1,1.657029688E-1,7.022635460E0,5.560321808E-1
1.106228729E1,-2.155634165E0,9.286245346E0,-5.961119533E-1
1.109562063E1,7.501499057E-1,9.204889297E0,5.919244885E-1
1.112895396E1,-6.559324861E-1,8.876773834E0,1.061515927E0
1.116228729E1,1.423131227E0,9.865906715E0,2.207378894E-1
1.119562062E1,1.068694472E0,8.138887405E0,-2.093719784E-3
1.122895396E1,1.199402362E-1,6.684648991E0,-9.541380405E-2
1.126228729E1,-1.983051777E0,1.050568771E1,2.255235314E-1
1.129562062E1,-8.715856671E-1,9.954740524E0,9.777671695E-1
1.132895396E1,-2.256132603E0,1.198116207E1,6.134598851E-1
1.136228729E1,-4.716851711E-1,8.055138588E0,1.776670814E-1
1.139562062E1,-8.141579032E-1,9.966704369E0,-7.710871100E-1
1.142895396E1,-5.171487927E-1,8.651549339E0,1.366899908E-1
1.146228729E1,-1.623829246E0,9.573683739E0,6.732804775E-1
1.149562062E1,1.947757602E0,1.268554878E1,-7.591229677E-1
1.152895396E1,-2.687438965E0,5.439185143E0,4.336991161E-2
1.156228729E1,1.127617657E-1,9.377471924E0,-7.710871100E-1
1.159562062E1,-1.736291885E0,7.056134701E0,-3.975076675E-1
1.162895395E1,-2.917448997E0,8.091031075E0,2.031805515E0
1.166228729E1,-2.929413080E0,5.894419670E0,2.422732860E-1
1.169562062E1,-1.415354609E0,8.586943626E0,6.927221417E-1
1.172895395E1,-1.415354609E0,8.586943626E0,6.927221417E-1
1.176228729E1,-8.189435601E-1,7.587939739E0,4.049852192E-1
1.179562062E1,1.289133191E0,1.029721355E1,1.643570065E0
1.182895395E1,-1.060917735E0,9.212067604E0,3.044866920E-1
1.186228728E1,1.519143224E0,8.586943626E0,-5.650052428E-1
1.189562062E1,-2.716152906E0,9.394221306E0,2.183450609E-1
1.192895395E1,1.959721804E0,1.014138031E1,3.379862010E-1
1.196228728E1,-2.584248483E-1,9.350852013E0,-4.286143482E-1
1.199562062E1,-2.584248483E-1,1.039053345E1,-2.871387303E-1
1.202895395E1,-2.584248483E-1,1.039053345E1,-2.871387303E-1
1.206228728E1,-8.835497499E-1,7.961519241E0,3.451646566E-1
1.209562062E1,3.403790295E-1,1.013180923E1,-1.233500123E0
1.212895395E1,-3.421736360E-1,8.215457916E0,-2.009970993E-1
1.216228728E1,7.022934556E-1,1.086491013E1,-1.473081470E0
1.219562062E1,-7.686942816E-1,3.810271025E0,1.217348576E0
1.222895395E1,-1.163809061E0,8.380861282E0,1.610070586E0
1.222895395E1,-1.163809061E0,8.380861282E0,1.610070586E0
1.229562061E1,-1.746760458E-1,1.011266708E1,6.999006271E-1
1.232895395E1,1.140479088E0,1.015334511E1,1.199402362E-1
1.236228728E1,5.294119939E-2,8.150851250E0,4.172484577E-1
1.239562061E1,5.153541565E-1,1.032592678E1,4.507479668E-1
1.242895395E1,5.153541565E-1,1.032592678E1,4.507479668E-1
1.246228728E1,7.022934556E-1,1.185194969E1,-8.404789567E-1
1.249562061E1,1.974078655E0,1.059422207E1,-1.640578985E0
1.252895395E1,2.231307179E-1,9.784550667E0,-2.177468538E-1
1.256228728E1,1.289133191E0,8.359326363E0,-3.559323773E-2
1.259562061E1,-9.302098304E-2,8.737690926E0,5.533402413E-2
1.262895394E1,6.421737671E-1,8.349754333E0,3.954139352E-1
1.266228728E1,1.983649969E0,1.015095139E1,-1.142273664E0
1.269562061E1,1.079761237E-1,8.924630165E0,-3.254238665E-1
1.272895394E1,5.129613280E-1,9.399007797E0,-3.756731451E-1
1.276228728E1,-6.191428751E-2,9.449256897E0,4.890331328E-1
1.279562061E1,-4.429712892E-1,9.372686386E0,-7.112665176E-1
1.282895394E1,9.801599979E-1,9.379864693E0,-3.517449200E-1
1.286228728E1,-3.828516304E-1,9.971489906E0,-3.062812984E-1
1.289562061E1,1.317847013E0,1.104227829E1,-6.825526357E-1
1.292895394E1,-2.943171859E-1,9.298210144E0,4.268197417E-1
1.296228727E1,1.465603858E-1,9.264710426E0,-8.285148144E-1
1.299562061E1,-4.453641176E-1,7.441678524E0,1.513460279E-1
1.302895394E1,1.441675574E-1,8.411968231E0,3.332005441E-1
1.306228727E1,1.441675574E-1,8.411968231E0,3.332005441E-1
1.309562061E1,-6.801598072E-1,6.919445038E0,-2.991028428E-1
1.312895394E1,4.914259613E-1,9.430113792E0,-1.487438321E0
1.316228727E1,1.971685886E0,9.348459244E0,1.281954765E0
1.319562060E1,2.901297435E-2,8.318648338E0,2.087737769E-1
1.322895394E1,2.901297435E-2,8.318648338E0,2.087737769E-1
1.326228727E1,-1.121635586E-1,7.310073376E0,-4.477569461E-1
1.329562060E1,-1.343569875E0,9.185747147E0,-7.208378315E-1
1.332895394E1,-1.121635586E-1,9.408578873E0,6.613163352E-1
1.336228727E1,-7.256234884E-1,9.739087105E0,-9.074779749E-1
1.339562060E1,3.332005441E-1,8.905488014E0,7.740781307E-1
1.342895394E1,2.764607430E0,9.262317657E0,4.121637046E-1
1.346228727E1,4.220340848E-1,1.018714333E1,7.142575383E-1
1.349562060E1,2.183450572E-2,9.257532120E0,5.225326419E-1
1.352895394E1,9.969097376E-1,7.676474094E0,5.533402413E-2
1.356228727E1,-8.021938205E-1,8.876773834E0,-4.214358926E-1
1.359562060E1,-1.579262912E-1,6.426224232E0,-5.123631358E-1
1.362895393E1,-2.064706802E0,5.034199715E0,2.019841433E0
1.366228727E1,1.696212173E0,8.270492554E0,1.401595831E0
1.369562060E1,-6.879365072E-3,8.193922043E0,-2.620440006E0
1.372895393E1,-3.708875179E-1,1.278844070E1,-1.659721613E0
1.376228727E1,-2.416750938E-1,3.721437454E0,1.016052365E0
1.379562060E1,1.480858088E0,1.275494099E1,-1.525723577E0
1.382895393E1,1.655534148E0,9.080163956E0,-2.153540403E-1
1.386228726E1,1.931007862E0,1.010548782E1,-1.411765367E-1
1.389562060E1,-5.865406394E-1,8.579764366E0,-6.669992954E-2
1.392895393E1,-5.865406394E-1,8.579764366E0,-6.669992954E-2
1.396228726E1,-4.166502357E-1,7.547261715E0,4.746761918E-1
1.399562060E1,7.262216806E-1,1.107338524E1,2.087737769E-1
1.402895393E1,8.721838593E-1,9.636196136E0,-8.356932998E-1
1.406228726E1,-2.220240355E0,9.978668213E0,1.971685886E0
1.409562060E1,2.041376829E0,1.133928776E1,-9.436694384E-1
1.412895393E1,2.041376829E0,1.133928776E1,-9.436694384E-1
1.416228726E1,1.966900229E0,1.567986774E1,-1.127916813E0
1.419562060E1,5.009972453E-1,8.950951576E0,1.751546144E0
1.422895393E1,2.486740828E0,1.081466103E1,-2.249253243E-1
1.426228726E1,-2.344966233E-1,8.483752251E0,-7.686942816E-1
1.429562059E1,-6.993024349E-1,7.528119087E0,-2.895315289E-1
1.432895393E1,-2.641975403E0,1.297298717E1,-1.554437399E0
1.436228726E1,2.510669231E0,9.178568840E0,1.126122117E0
1.439562059E1,4.459623098E-1,9.444471359E0,-7.902296782E-1
1.442895393E1,2.402992249E0,1.213460159E1,-2.143670082E0
1.446228726E1,-1.302891970E0,7.125526905E0,1.540678620E0
1.449562059E1,-3.038884699E-1,9.506684303E0,-5.147559643E-1
1.452895393E1,-1.705185294E0,6.061916828E0,1.916650891E0
1.456228726E1,1.555035591E0,1.068514919E1,1.229312658E0
1.459562059E1,1.555035591E0,1.068514919E1,1.229312658E0
1.462895392E1,-9.541380405E-2,9.300602913E0,4.363910258E-1
1.466228726E1,1.531107426E0,1.017039394E1,-1.770688742E-1
1.469562059E1,-5.578267574E-1,1.046500969E1,5.084747914E-3
1.472895392E1,8.482556343E-1,8.742476463E0,7.686942816E-2
1.476228726E1,-1.475474238E0,9.935597420E0,-1.283749342E0
1.479562059E1,9.753743410E-1,1.121456146E1,5.584250093E-1
1.482895392E1,-8.344969153E-2,1.525334740E1,-1.163809061E0
1.486228726E1,1.545464277E0,1.025414276E1,3.571287692E-1
1.489562059E1,3.260220885E-1,1.147807121E1,2.685943544E-1
1.492895392E1,1.023230791E0,8.361719131E0,1.171585798E0
1.496228725E1,9.777671695E-1,8.543573380E0,-7.627122104E-2
1.499562059E1,9.777671695E-1,8.543573380E0,-7.627122104E-2
1.499562059E1,3.068794906E-1,7.130312443E0,-3.684946895E-1
1.506228725E1,-1.111167073E0,8.368897438E0,9.320043921E-1
1.509562059E1,1.595713615E0,7.401000500E0,-5.171487927E-1
1.512895392E1,1.116550922E0,1.305434322E1,-1.048953652E0
1.516228725E1,-1.611865163E0,8.936594009E0,9.391828775E-1
1.519562058E1,-1.748555183E0,9.664909363E0,3.451646566E-1
1.522895392E1,-3.397808075E-1,8.692227364E0,-6.487540603E-1
1.526228725E1,1.295115203E-1,6.725626469E0,-7.256234884E-1
1.529562058E1,-1.108774185E0,7.669295788E0,-1.468295813E0
1.532895392E1,2.039881349E-1,9.113962173E0,-9.146564603E-1
1.536228725E1,1.752742529E-1,1.182323551E1,-2.031207323E0
1.539562058E1,-7.974081635E-1,8.241778374E0,-2.723331213E0
1.542895392E1,6.158527136E-1,7.755437374E0,9.825528264E-1
1.546228725E1,-2.344966233E-1,1.190698433E1,-6.367899179E-1
1.549562058E1,1.895115495E0,1.250100327E1,4.435695112E-1
1.552895392E1,-3.815654755E0,5.839085579E0,-1.434497118E0
1.556228725E1,3.615255833E0,1.341386509E1,-5.195416212E-1
1.559562058E1,-4.453641176E-1,7.353144169E0,8.051848412E-1
1.562895391E1,-8.739784956E-1,4.464109898E0,1.080658555E0
1.566228725E1,9.394819736E-1,1.181844997E1,-3.281457186E0
1.569562058E1,-3.947559118E0,5.209175110E0,-8.620143533E-1
1.572895391E1,3.499503136E-1,6.303891182E0,-3.951148391E-1
1.576228725E1,2.997010350E-1,1.034506989E1,-4.860421121E-1
1.579562058E1,1.848455518E-1,9.516255379E0,-2.225325108E-1
1.582895391E1,1.848455518E-1,9.516255379E0,-2.225325108E-1
1.582895391E1,1.602892041E0,1.024935627E1,-8.763712645E-1
1.589562058E1,5.054837838E-2,1.004806042E1,-8.644071817E-1
1.592895391E1,2.991028305E-4,9.710372925E0,-7.830511928E-1
1.596228724E1,1.602892041E0,1.035464096E1,-1.039382339E0
1.599562058E1,8.745766878E-1,1.004327488E1,-1.228714466E0
1.602895391E1,5.249254704E-1,9.798908234E0,-1.736590981E0
1.606228724E1,-2.703889608E-1,7.322037220E0,-8.859425783E-1
1.609562058E1,8.769695163E-1,9.118747711E0,-1.266999602E0
1.612895391E1,2.211267233E0,1.026132107E1,-1.360319614E0
1.616228724E1,6.469594240E-1,9.343673706E0,-1.046560764E0
1.619562058E1,1.837687731E0,7.499405384E0,2.350948304E-1
1.622895391E1,1.657029688E-1,9.760622978E0,-1.324427366E0
1.626228724E1,-6.415755749E-1,8.891130447E0,3.738785386E-1
1.629562057E1,-5.712864175E-2,9.384650230E0,4.049852192E-1
1.632895391E1,2.472383976E0,1.151665497E1,-8.452646136E-1
1.636228724E1,-2.249253243E-1,9.219246864E0,-5.817549825E-1
1.639562057E1,-2.249253243E-1,9.219246864E0,-5.817549825E-1
1.642895391E1,-2.871387303E-1,8.821439743E0,7.549355626E-1
1.646228724E1,1.811366796E0,8.500502586E0,2.327020019E-1
1.649562057E1,-3.182454109E-1,8.977272034E0,1.414756328E-1
1.652895390E1,1.476072431E0,6.960422039E0,-2.841476910E-2
1.656228724E1,-5.051847100E-1,7.810771465E0,-1.861017823E0
1.659562057E1,-5.051847100E-1,7.810771465E0,-1.861017823E0
1.662895390E1,3.571287692E-1,1.054875851E1,-4.286143482E-1
1.666228724E1,4.866403043E-1,5.091926575E0,1.489532143E-1
1.669562057E1,4.866403043E-1,5.091926575E0,1.489532143E-1
1.672895390E1,4.866403043E-1,5.091926575E0,1.489532143E-1
1.676228724E1,4.866403043E-1,5.091926575E0,1.489532143E-1
1.679562057E1,9.921240807E-1,1.036181927E1,3.858426511E-1
1.682895390E1,1.042373419E0,1.127228832E1,-4.118646085E-1
1.686228724E1,8.123632669E-1,1.210588837E1,-8.823533356E-2
1.689562057E1,8.171489239E-1,1.018235779E1,4.435695112E-1
1.692895390E1,6.807580590E-1,7.662117004E0,-9.652048349E-1
1.696228723E1,1.075872898E0,7.401000500E0,-1.849053741E0
1.699562057E1,-6.296114326E-1,7.980661869E0,7.597211599E-1
1.702895390E1,1.739282966E0,7.240681171E0,7.447660714E-2
1.706228723E1,1.173978567E0,8.579764366E0,-1.384247899E0
1.709562057E1,2.709871531E-1,9.729516029E0,-7.627122104E-2
1.712895390E1,8.410771489E-1,9.058628082E0,1.342971772E-1
1.716228723E1,7.022934556E-1,8.143672943E0,6.302096844E-1
1.719562057E1,9.320043921E-1,7.789236069E0,3.595215976E-1
1.722895390E1,9.320043921E-1,7.789236069E0,3.595215976E-1
1.726228723E1,-6.080760360E-1,8.888737679E0,6.780661345E-1
1.729562056E1,1.223330572E-1,9.767801285E0,-1.025922745E-1
1.732895390E1,1.223330572E-1,9.767801285E0,-1.025922745E-1
1.736228723E1,1.223330572E-1,9.767801285E0,-1.025922745E-1
1.739562056E1,6.999006271E-1,1.005763149E1,-8.835497499E-1
1.742895390E1,6.110670567E-1,6.771090031E0,-1.435693651E-1
1.746228723E1,3.619144261E-1,6.543472767E0,-7.447660565E-1
1.749562056E1,3.619144261E-1,6.543472767E0,-7.447660565E-1
1.752895390E1,3.619144261E-1,6.543472767E0,-7.447660565E-1
1.756228723E1,1.899901152E0,9.830014229E0,-4.094717801E-1
1.759562056E1,6.011966988E-2,8.646763802E0,-1.746760458E-1
1.762895389E1,-9.302098304E-2,1.167458153E1,-1.842473447E-1
1.766228723E1,2.192124605E0,1.225902843E1,-1.411765367E-1
1.769562056E1,2.685943544E-1,1.017517948E1,2.470589429E-1
1.772895389E1,2.304886341E0,1.025174904E1,-6.658028960E-1
1.776228723E1,8.291130662E-1,1.057986546E1,-3.445664644E-1
1.779562056E1,7.070791125E-1,8.431110382E0,-6.909275055E-2
1.782895389E1,1.557428479E0,7.264609337E0,-4.501497746E-1
1.786228723E1,-1.405783277E-2,8.253742218E0,1.295115203E-1
1.789562056E1,1.521536112E0,7.956733704E0,-1.097707376E-1
1.792895389E1,-5.482555032E-1,5.292923450E0,-3.541377485E-1
1.796228722E1,1.753939033E0,1.139671516E1,-1.554437399E0
1.799562056E1,5.847460628E-1,9.791728973E0,-6.487540603E-1
1.802895389E1,6.903293133E-1,8.953344345E0,7.525427341E-1
1.806228722E1,9.224331379E-1,8.385646820E0,1.247258782E-1
1.809562056E1,7.094719410E-1,9.341280937E0,-6.200401783E-1
1.812895389E1,7.094719410E-1,9.341280937E0,-6.200401783E-1
1.816228722E1,3.762713671E-1,8.445467949E0,-1.475474238E0
1.819562056E1,3.762713671E-1,8.445467949E0,-1.475474238E0
1.822895389E1,1.142871857E0,1.217049408E1,-2.727817893E-1
1.826228722E1,6.927221417E-1,1.081466103E1,-6.945167780E-1
1.829562055E1,1.607677698E0,1.050568771E1,-1.865803480E0
1.832895389E1,1.607677698E0,1.050568771E1,-1.865803480E0
1.836228722E1,-9.771689177E-1,8.565407753E0,2.063809484E-1
1.839562055E1,1.804188251E0,9.207282066E0,-1.339980662E-1
1.842895389E1,1.919043779E0,7.695616722E0,6.969095767E-2
1.846228722E1,2.288136721E0,9.736694336E0,-8.117650747E-1
1.849562055E1,1.202692509E0,8.476573944E0,-9.541380405E-2
1.852895388E1,1.399203062E0,9.360423088E0,-1.005882859E0
1.856228722E1,1.248455167E0,1.024935627E1,2.398804724E-1
1.859562055E1,1.739282966E0,1.127228832E1,-5.234299600E-2
1.862895388E1,1.130907774E0,1.110209846E1,-8.404789567E-1
1.866228722E1,2.072483540E0,1.080748272E1,-9.050851464E-1
1.869562055E1,-1.293320656E0,8.816654205E0,9.601201117E-2
1.872895388E1,2.505883455E0,9.360423088E0,-1.089631557E0
1.876228722E1,-6.993024349E-1,8.248956680E0,2.207378894E-1
1.879562055E1,3.023331404E0,1.213220882E1,-8.763712645E-1
1.882895388E1,1.962114573E0,8.893523216E0,2.111666054E-1
1.886228722E1,9.056833982E-1,8.220243454E0,-9.675976634E-1
1.889562055E1,9.056833982E-1,8.220243454E0,-9.675976634E-1
1.892895388E1,4.698905349E-1,7.834699631E0,-1.111167073E0
1.896228721E1,6.326025128E-1,1.098245811E1,-4.037888348E-2
1.899562055E1,3.427718580E-1,9.899406433E0,9.296116233E-1
1.902895388E1,1.679462433E0,9.314959526E0,5.608177781E-1
1.906228721E1,1.679462433E0,9.314959526E0,5.608177781E-1
1.909562055E1,9.080761671E-1,6.600900173E0,-1.115952611E0
1.912895388E1,1.684248090E0,9.698409081E0,-9.652048349E-1
1.916228721E1,-1.721935034E0,1.105424213E1,4.914259613E-1
1.919562054E1,5.991029739E-1,1.011266708E1,7.477570791E-3
1.922895388E1,5.991029739E-1,1.011266708E1,7.477570791E-3
1.922895388E1,-2.841476910E-2,8.158029556E0,3.810569942E-1
1.929562054E1,4.001995921E-1,9.005986214E0,-1.180558920E0
1.932895388E1,8.745766878E-1,9.595218658E0,1.782652855E0
1.936228721E1,2.469991207E0,9.758230209E0,-6.610172391E-1
1.939562054E1,-2.189133644E0,5.211567879E0,-1.794617027E-1
1.942895388E1,4.842474759E-1,5.319244862E0,-9.915258884E-1
1.946228721E1,-7.615157962E-1,9.216854095E0,1.438684613E-1
1.949562054E1,4.336991161E-2,9.926026344E0,1.147657514E0
1.952895388E1,8.650053740E-1,1.011027431E1,-6.879365072E-3
1.956228721E1,1.190728426E0,9.741479874E0,-2.208276272E0
1.959562054E1,-3.039483070E0,9.995418549E0,-6.128616929E-1
1.962895387E1,1.325025558E0,9.106783867E0,6.490531564E-2
1.966228721E1,1.325025558E0,9.106783867E0,6.490531564E-2
1.969562054E1,-4.980062246E-1,8.272885323E0,8.697910309E-1
1.972895387E1,-1.060917735E0,5.693123341E0,2.058126688E0
1.976228721E1,-5.817549825E-1,6.847660065E0,-3.882952929E0
1.979562054E1,-2.840878725E0,7.583154202E0,1.806581140E0
1.982895387E1,-8.584251255E-2,8.234600067E0,1.523928881E0
1.986228720E1,4.698905349E-1,7.267002583E0,3.619144261E-1
1.989562054E1,1.427916884E0,9.336494446E0,-2.534298182E0
1.992895387E1,-1.250249863E0,7.707581043E0,-1.084846020E0
1.996228720E1,2.034198284E0,1.088883877E1,-1.794018745E0
1.999562054E1,-1.678864241E0,6.418746948E0,1.585244983E-1
2.002895387E1,-1.678864241E0,6.418746948E0,1.585244983E-1
2.006228720E1,-1.678864241E0,6.418746948E0,1.585244983E-1
2.009562054E1,-7.710871100E-1,1.254646683E1,-2.536391914E-1
2.012895387E1,2.757728100E-1,1.108774185E1,-7.399803996E-1
2.016228720E1,2.757728100E-1,1.108774185E1,-7.399803996E-1
2.019562054E1,-2.474178553E0,7.218846798E0,4.196412563E-1
2.022895387E1,-1.707578063E0,5.714658737E0,-3.975076675E-1
2.026228720E1,-3.493520916E-1,9.326923370E0,-2.823530734E-1
2.029562053E1,-3.360719442E0,6.260820389E0,1.301097274E0
2.032895387E1,-3.360719442E0,6.260820389E0,1.301097274E0
2.036228720E1,-4.046861231E-1,9.724730492E0,-7.591229677E-1
2.039562053E1,-9.050851464E-1,6.957729816E0,4.818546474E-1
2.042895387E1,5.294119939E-2,9.660123825E0,5.967101455E-1
2.046228720E1,3.978067636E-1,1.177537918E1,-1.986042857E-1
2.049562053E1,3.978067636E-1,1.177537918E1,-1.986042857E-1
2.052895387E1,1.633998752E0,9.101998329E0,3.858426511E-1
2.056228720E1,3.277269602E0,1.195244789E1,-5.315057039E-1
2.059562053E1,4.244269133E-1,1.052243805E1,-3.206382394E-1
2.062895386E1,-2.426322222E0,3.453142166E0,2.117947102E0
2.066228720E1,1.732104540E0,1.119541931E1,4.651049078E-1
2.069562053E1,-1.369890928E0,1.051286602E1,-1.842473447E-1
2.072895386E1,2.278565407E0,9.235996246E0,-1.504188180E0
2.076228720E1,-2.809472799E0,8.079066277E0,-6.104688644E-1
2.079562053E1,1.700997829E0,8.335397720E0,-2.622832775E0
2.082895386E1,1.700997829E0,8.335397720E0,-2.622832775E0
2.086228720E1,6.807580590E-1,7.671688557E0,-5.985047817E-1
2.089562053E1,-5.219344497E-1,8.823832512E0,-3.756731451E-1
2.092895386E1,9.176474810E-1,9.820443153E0,1.489532143E-1
2.096228719E1,6.565307379E-1,9.753444672E0,-8.883354068E-1
2.099562053E1,6.565307379E-1,9.753444672E0,-8.883354068E-1
2.102895386E1,2.307279348E0,1.182323551E1,-9.780662507E-2
2.106228719E1,6.927221417E-1,1.001695347E1,1.366899908E-1
2.109562053E1,1.763510346E0,9.533005714E0,-9.675976634E-1
2.112895386E1,3.332005441E-1,8.016553879E0,-4.573282301E-1
2.116228719E1,1.602892041E0,8.505288124E0,-1.154237866E0
2.119562053E1,-1.592722535E0,6.486044884E0,-5.817549825E-1
2.122895386E1,6.038886309E-1,7.688438416E0,1.223330572E-1
2.126228719E1,5.533402413E-2,7.479963779E0,-7.926225066E-1
2.129562052E1,1.394417405E0,9.516255379E0,-4.621138871E-1
2.132895386E1,1.392024517E0,9.926026344E0,-1.025025368E0
2.136228719E1,2.542374134E-1,9.101998329E0,-3.421736360E-1
2.139562052E1,1.425524116E0,9.513862610E0,-9.780662507E-2
2.142895386E1,1.535893083E0,1.021585751E1,-1.195214868E0
2.146228719E1,1.896311939E-1,1.060140038E1,-1.063310504E0
2.149562052E1,1.140479088E0,8.543573380E0,5.344967842E-1
2.152895386E1,6.230311990E-1,9.370293617E0,-1.674975902E-1
2.156228719E1,7.429714203E-1,9.302995682E0,-3.975076675E-1
2.159562052E1,1.962114573E0,9.243174553E0,-5.243272781E-1
2.162895385E1,2.836691141E0,9.734301567E0,-1.060917735E0
2.166228719E1,3.403790295E-1,8.579764366E0,-1.962114573E-1
2.169562052E1,1.609173268E-1,8.122137070E0,-8.105687052E-2
2.172895385E1,1.080658555E0,8.081459045E0,-1.336391449E0
2.176228719E1,7.573283911E-1,1.156451225E1,-6.897311211E-1
2.179562052E1,7.573283911E-1,1.156451225E1,-6.897311211E-1
2.182895385E1,1.770688772E0,1.186630630E1,-1.555334777E-1
2.186228719E1,1.016052365E0,1.081466103E1,-4.549354017E-1
2.189562052E1,1.016052365E0,1.081466103E1,-4.549354017E-1
2.192895385E1,-7.615157962E-1,7.633403301E0,2.063809484E-1
2.196228718E1,1.995614052E0,9.293423653E0,-1.087238789E0
2.199562052E1,7.645068169E-1,8.826225281E0,2.183450572E-2
2.202895385E1,-5.712864175E-2,6.852446079E0,-4.516452923E-2
2.206228718E1,2.316850424E0,9.993025780E0,-1.734198213E0
2.209562052E1,-4.262215197E-1,8.093423843E0,3.379862010E-2
2.212895385E1,1.944168359E-1,1.075005436E1,-1.579262912E-1
2.216228718E1,-5.473581702E-2,7.839485168E0,1.944168471E-2
2.219562052E1,-7.304090858E-1,1.166261768E1,-7.758727670E-1
2.222895385E1,2.733799815E-1,1.049850941E1,-1.316052526E-1
2.226228718E1,-1.300499082E0,9.257532120E0,-6.849454641E-1
2.229562051E1,5.656034350E-1,1.080030441E1,-1.604686737E0
2.232895385E1,5.656034350E-1,1.080030441E1,-1.604686737E0
2.236228718E1,1.031904742E-1,9.731908798E0,-1.127916813E0
2.239562051E1,5.207978249E0,1.067797089E1,-2.723331213E0
2.242895385E1,2.518445849E-1,9.168996811E0,-1.463510156E0
2.246228718E1,8.315058947E-1,9.839586258E0,7.788637877E-1
2.249562051E1,-9.302098304E-2,1.045543861E1,8.051848412E-1
2.252895384E1,-2.505285263E0,6.692126751E0,6.999006271E-1
2.256228718E1,2.549253464E0,1.063250732E1,-2.225025892E0
2.259562051E1,-2.153540403E-1,6.222535133E0,9.681958556E-1
2.262895384E1,1.207777262E0,9.439684868E0,-7.328019142E-1
2.266228718E1,9.032905698E-1,9.322137833E0,-1.001994461E-1
2.269562051E1,1.135693431E0,9.791728973E0,-5.721837282E-1
2.272895384E1,-5.315057039E-1,7.707581043E0,-2.751746178E-1
2.276228718E1,-5.315057039E-1,7.707581043E0,-2.751746178E-1
2.279562051E1,5.416752100E-1,8.598907471E0,-1.326820135E0
2.282895384E1,2.757728100E-1,7.712366581E0,-1.411765367E-1
2.286228718E1,1.992024779E-1,8.256134987E0,8.817551732E-1
2.289562051E1,-1.552044630E0,7.772486210E0,-1.211964726E0
2.292895384E1,3.602992773E0,1.442931843E1,-3.128316402E0
2.296228717E1,9.272187948E-1,1.107817078E1,-2.888735056E0
2.299562051E1,1.840080619E0,1.010070229E1,4.651049078E-1
2.302895384E1,2.089233160E0,1.175115204E1,-1.101595759E0
2.306228717E1,-1.255035520E0,8.354539871E0,2.398804724E-1
2.309562051E1,-2.602194622E-2,5.326423168E0,7.926224917E-2
2.312895384E1,4.434498787E0,1.640818214E1,-1.422533035E0
2.316228717E1,-4.501497746E-1,1.003848934E1,-5.315057039E-1
2.319562050E1,-4.501497746E-1,1.003848934E1,-5.315057039E-1
2.322895384E1,-5.075774789E-1,1.025174904E1,-4.516452923E-2
2.326228717E1,-2.703889608E-1,7.566404343E0,-3.397808075E-1
2.329562050E1,9.921240807E-1,1.111406326E1,-6.248258352E-1
2.332895384E1,2.326421738E0,1.055832958E1,3.595215976E-1
2.336228717E1,1.396810174E0,1.011984539E1,-2.280359983E0
2.339562050E1,2.757728100E-1,7.231110096E0,4.097708687E-2
2.342895384E1,-7.998009920E-1,8.692227364E0,-6.439684033E-1
2.346228717E1,-3.302095234E-1,9.760622978E0,3.978067636E-1
2.349562050E1,3.762713671E-1,9.672088623E0,1.103689447E-1
2.352895384E1,1.351346612E0,9.319745064E0,7.477570791E-3
2.356228717E1,2.309672117E0,1.214177990E1,-1.326820135E0
2.359562050E1,6.230311990E-1,1.244596767E1,-1.674078584E0
2.362895383E1,6.230311990E-1,1.244596767E1,-1.674078584E0
2.366228717E1,1.145264745E0,1.065882874E1,-5.530411601E-1
2.369562050E1,5.488536954E-1,7.094419956E0,3.044866920E-1
2.372895383E1,5.488536954E-1,7.094419956E0,3.044866920E-1
2.376228717E1,-1.144666553E0,5.118247509E0,8.602197170E-1
2.379562050E1,4.097708687E-2,8.656334877E0,-5.473581702E-2
2.382895383E1,-5.769693851E-1,1.041924667E1,4.025924206E-1
2.386228716E1,-1.101595759E0,9.616754532E0,-1.135095239E0
2.389562050E1,-3.948157430E-1,9.602396965E0,-1.300499082E0
2.392895383E1,2.518445849E-1,1.011984539E1,-3.158525825E-1
2.396228716E1,-6.559324861E-1,7.281359196E0,-3.134597540E-1
2.399562050E1,-4.166502357E-1,7.240681171E0,9.601201117E-2
2.402895383E1,2.534597397E0,1.076919746E1,-1.842473447E-1
2.406228716E1,2.534597397E0,1.076919746E1,-1.842473447E-1
2.409562050E1,1.626820326E0,1.049850941E1,-2.967100143E-1
2.412895383E1,-7.878368497E-1,8.201100349E0,-6.945167780E-1
2.416228716E1,-7.878368497E-1,8.201100349E0,-6.945167780E-1
2.419562050E1,1.258026481E0,8.905488014E0,7.310073376E-1
2.422895383E1,1.190728426E0,9.703194618E0,-7.734799385E-1
2.426228716E1,-3.684946895E-1,7.039385319E0,1.365703583E0
2.429562049E1,-2.275574446E0,8.179565430E0,-2.246561289E0
2.432895383E1,1.641177177E0,9.013164520E0,-5.712864175E-2
2.436228716E1,4.890331328E-1,7.868198872E0,7.668996453E-1
2.439562049E1,1.360917926E0,9.252745628E0,-1.252642632E0
2.442895383E1,-4.477569461E-1,1.016530895E1,3.116651475E-1
2.446228716E1,5.105685592E-1,1.000738239E1,-5.961119533E-1
2.449562049E1,5.105685592E-1,1.000738239E1,-5.961119533E-1
2.452895383E1,1.653141379E0,1.046740246E1,-1.056132078E0
2.456228716E1,6.373881102E-1,8.390432358E0,-8.979067206E-1
2.459562049E1,6.373881102E-1,8.390432358E0,-8.979067206E-1
2.462895382E1,5.847460628E-1,6.502794743E0,-5.099703074E-1
2.466228716E1,-2.143670082E0,6.040381432E0,-3.559323773E-2
2.469562049E1,-8.979067206E-1,9.853942871E0,-1.722832322E-1
2.472895382E1,-1.508973837E0,6.991528511E0,-4.956133962E-1
2.476228716E1,5.823532343E-1,1.169372463E1,-2.483749866E0
2.479562049E1,-1.101595759E0,9.576076508E0,-1.695613980E0
2.482895382E1,1.861616015E0,1.292513084E1,2.303091735E-1
2.486228716E1,1.118943691E0,9.099605560E0,-6.969096065E-1
2.489562049E1,-6.909275055E-2,1.178734303E1,-1.264606714E0
2.492895382E1,-6.909275055E-2,1.178734303E1,-1.264606714E0
2.496228715E1,-1.324427366E0,5.453541756E0,-6.008976102E-1
2.499562049E1,7.956135273E-1,1.042164040E1,-1.398604870E0
2.502895382E1,7.956135273E-1,1.042164040E1,-1.398604870E0
2.506228715E1,2.204088688E0,9.202496529E0,-2.289931297E0
2.509562049E1,-1.398604870E0,9.703194618E0,2.542374134E-1
2.512895382E1,5.297111273E-1,9.468399048E0,1.018445134E0
2.516228715E1,-5.865406394E-1,9.281459808E0,-1.333998680E0
2.519562049E1,-4.788636267E-1,8.811868668E0,-7.375875711E-1
2.522895382E1,3.140579537E-2,1.176550865E1,-5.769693851E-1
2.526228715E1,-1.389033556E0,6.224927902E0,1.689033628E0
2.529562048E1,1.332203984E0,1.046500969E1,-8.572286963E-1
2.532895382E1,1.768295884E0,1.003370380E1,-1.844268084E0
2.536228715E1,1.768295884E0,1.003370380E1,-1.844268084E0
2.539562048E1,-3.924229145E-1,5.973382473E0,1.004088163E0
2.542895382E1,-2.009970993E-1,7.523333549E0,5.560321808E-1
2.546228715E1,-2.009970993E-1,7.523333549E0,5.560321808E-1
2.549562048E1,-8.189435601E-1,9.027522087E0,6.349952817E-1
2.552895382E1,4.172484577E-1,8.646763802E0,9.705886841E-1
2.556228715E1,1.095015407E0,9.954740524E0,1.375274777E0
2.559562048E1,-1.702792406E0,6.052345753E0,-1.607079506E0
2.562895381E1,-5.099703074E-1,9.161818504E0,-1.185344458E0
2.566228715E1,-2.093719784E-3,9.645767212E0,-6.056832075E-1
2.569562048E1,1.363310695E0,7.872984886E0,-2.608176768E-1
2.572895381E1,1.365703583E0,9.518648148E0,-8.644071817E-1
2.576228715E1,4.028915167E-1,9.549755096E0,-1.564008713E0
2.579562048E1,4.028915167E-1,9.549755096E0,-1.564008713E0
2.582895381E1,4.818546474E-1,9.494720459E0,-5.386841893E-1
2.586228715E1,6.182455420E-1,8.998807907E0,-6.296114326E-1
2.589562048E1,6.182455420E-1,8.998807907E0,-6.296114326E-1
2.592895381E1,2.733799815E-1,9.279067039E0,-1.842473447E-1
2.596228714E1,-3.684946895E-1,9.068199158E0,-6.511468887E-1
2.599562048E1,-1.420140266E0,8.486145973E0,-8.476574421E-1
2.602895381E1,1.830509305E0,9.070592880E0,-3.517449200E-1
2.606228714E1,6.759724021E-1,1.134407330E1,9.224331379E-1
2.609562048E1,-3.445664644E-1,7.652545929E0,6.541379094E-1
2.612895381E1,1.986042738E0,7.954340458E0,-3.927220106E-1
2.616228714E1,1.368096352E0,7.013063908E0,6.490531564E-2
2.619562048E1,-3.110669553E-1,1.093430233E1,6.807580590E-1
2.622895381E1,9.248259664E-1,5.652445316E0,8.267202377E-1
2.626228714E1,1.291526079E0,6.696912289E0,-1.436890006E0
2.629562047E1,-5.673980713E-1,8.828618050E0,4.172484577E-1
2.632895381E1,-5.673980713E-1,8.828618050E0,4.172484577E-1
2.636228714E1,2.747857809E0,1.121695423E1,1.271187067E-1
2.639562047E1,4.585246563E0,1.380658627E1,-3.267100334E0
2.642895381E1,-8.979067206E-1,4.981557846E0,3.810569942E-1
2.646228714E1,2.441277266E0,1.249860954E1,-1.619043589E0
2.649562047E1,-1.794018745E0,7.889734268E0,1.732104540E0
2.652895380E1,2.941975355E0,8.979664803E0,8.123632669E-1
2.656228714E1,-1.555334777E-1,8.354539871E0,-7.232306600E-1
2.659562047E1,-3.046661377E0,7.324429989E0,6.855437160E-1
2.662895380E1,-4.884349108E-1,7.817949772E0,2.638086975E-1
2.666228714E1,-4.884349108E-1,7.817949772E0,2.638086975E-1
2.669562047E1,1.162014484E0,9.942776680E0,-4.884349108E-1
2.672895380E1,-1.411765367E-1,8.725727081E0,5.775675774E-1
2.676228714E1,-1.411765367E-1,8.725727081E0,5.775675774E-1
2.679562047E1,2.374278307E0,9.015557289E0,-4.118646085E-1
2.682895380E1,7.046862841E-1,9.786943436E0,-1.118345499E0
2.686228714E1,-1.507478207E-1,9.425328255E0,1.079761237E-1
2.689562047E1,-1.733899117E0,4.416253090E0,9.658030272E-1
2.692895380E1,7.142575383E-1,9.262317657E0,-1.005882859E0
2.696228713E1,-9.580263495E-1,1.046979523E1,1.944168471E-2
2.699562047E1,2.220838547E0,1.077637577E1,-4.214358926E-1
2.702895380E1,1.152443171E0,1.063968563E1,-7.328019142E-1
2.706228713E1,1.387238979E0,1.212024498E1,-1.832303882E0
2.709562047E1,1.183549881E0,1.216331577E1,-1.483550072E-1
2.712895380E1,-9.780662507E-2,7.856235027E0,6.927221417E-1
2.716228713E1,2.213660002E0,1.088883877E1,-8.333004713E-1
2.719562046E1,2.213660002E0,1.088883877E1,-8.333004713E-1
2.722895380E1,2.450848579E0,1.033310509E1,-1.168594718E0
2.726228713E1,1.824527234E-1,8.922237396E0,-2.560320199E-1
2.729562046E1,9.343972206E-1,6.876374245E0,-2.123630047E-2
2.732895380E1,2.144268274E0,1.032831955E1,-1.607079506E0
2.736228713E1,8.338986635E-1,8.586943626E0,-4.094717801E-1
2.739562046E1,6.490531564E-2,7.810771465E0,1.090229869E0
2.742895380E1,-4.381856322E-1,7.834699631E0,-1.963909149E0
2.746228713E1,-8.668000102E-1,9.037093163E0,-8.428717852E-1
2.749562046E1,-4.980062246E-1,8.634799957E0,-2.584248483E-1
2.752895380E1,1.856830359E0,8.570193291E0,-2.488535494E-1
2.756228713E1,8.602197170E-1,1.148524952E1,4.196412563E-1
2.759562046E1,9.873384237E-1,9.257532120E0,-2.464607358E-1
2.762895379E1,9.873384237E-1,9.257532120E0,-2.464607358E-1
2.766228713E1,-6.439684033E-1,5.082056046E0,-6.056832075E-1
2.769562046E1,-2.309073925E0,1.152861977E1,-5.219344497E-1
2.772895379E1,1.914258122E0,8.519644737E0,-1.507478207E-1
2.776228713E1,9.658030272E-1,1.214895916E1,-1.070489049E0
2.779562046E1,1.114158034E0,1.207717419E1,-5.889334679E-1
2.782895379E1,2.247159481E0,1.113081264E1,2.949153781E-1
2.786228712E1,5.967101455E-1,7.259823799E0,1.247258782E-1
2.789562046E1,2.542374134E-1,1.111884880E1,-1.779661894E0
2.792895379E1,1.178764224E0,1.101117134E1,-4.334000051E-1
2.796228712E1,-1.432104349E0,4.119244099E0,1.619641781E0
2.799562046E1,1.246062398E0,9.113962173E0,-5.362913609E-1
2.802895379E1,9.801599979E-1,8.414361000E0,-1.314856052E0
2.806228712E1,9.801599979E-1,8.414361000E0,-1.314856052E0
2.809562046E1,2.913261652E0,1.143260765E1,-1.559223056E0
2.812895379E1,3.260220885E-1,1.058943653E1,-9.002995491E-1
2.816228712E1,1.828116536E0,1.165304661E1,-7.806583643E-1
2.819562046E1,-2.249253243E-1,8.550751686E0,7.501499057E-1
2.822895379E1,5.775675774E-1,1.019671440E1,5.488536954E-1
2.826228712E1,8.602197170E-1,9.233603477E0,2.685943544E-1
2.829562045E1,1.765903115E0,8.898308754E0,-4.956133962E-1
2.832895379E1,-3.637090325E-1,6.567400932E0,-8.859425783E-1
2.836228712E1,1.859223247E0,7.698009491E0,-5.338985324E-1
2.839562045E1,2.350948304E-1,8.606085777E0,-2.368894368E-1
2.842895379E1,1.897508383E0,8.953344345E0,-6.681957245E-1
2.846228712E1,8.650053740E-1,7.971090317E0,-1.890329868E-1
2.849562045E1,8.650053740E-1,7.971090317E0,-1.890329868E-1
2.852895379E1,9.080761671E-1,8.811868668E0,-4.740779996E-1
2.856228712E1,6.735795736E-1,9.674481392E0,-2.129612118E-1
2.859562045E1,1.590927958E0,9.628718376E0,-5.473581702E-2
2.862895378E1,5.533402413E-2,8.596514702E0,-1.411765367E-1
2.866228712E1,1.255633712E0,1.013180923E1,7.686942816E-2
2.869562045E1,1.250848055E0,9.116354942E0,2.087737769E-1
2.872895378E1,2.139482498E0,9.873085022E0,-5.267201066E-1
2.876228712E1,9.418748021E-1,8.862417221E0,-2.416750938E-1
2.879562045E1,1.777867198E0,9.516255379E0,-5.937191248E-1
2.882895378E1,7.381857634E-1,9.157032967E0,-3.320041299E-2
2.886228712E1,1.545464277E0,9.969097137E0,-5.865406394E-1
2.889562045E1,9.128618240E-1,8.625227928E0,1.680957973E-1
2.892895378E1,9.128618240E-1,8.625227928E0,1.680957973E-1
2.896228711E1,1.332203984E0,9.104391098E0,-6.008976102E-1
2.899562045E1,4.124628007E-1,8.938986778E0,-5.195416212E-1
2.902895378E1,4.124628007E-1,8.938986778E0,-5.195416212E-1
2.906228711E1,1.944168359E-1,8.618049622E0,-2.608176768E-1
2.909562045E1,6.158527136E-1,9.420542717E0,-3.445664644E-1
2.912895378E1,1.162014484E0,1.000977516E1,-9.780662507E-2
2.916228711E1,-4.549354017E-1,9.123533249E0,-2.177468538E-1
2.919562045E1,1.736890078E0,1.086012459E1,-4.621138871E-1
2.922895378E1,9.272187948E-1,9.724730492E0,-2.273181528E-1
2.926228711E1,7.716853023E-1,8.316255569E0,1.175474152E-1
2.929562044E1,6.735795736E-1,9.032307625E0,1.752742529E-1
2.932895378E1,1.269990563E0,8.119744301E0,-4.405784607E-1
2.936228711E1,2.662015259E-1,7.877770424E0,-2.249253243E-1
2.939562044E1,6.086742878E-1,8.598907471E0,-3.999004960E-1
2.942895378E1,9.586246014E-1,8.938986778E0,-5.817549825E-1
2.946228711E1,9.586246014E-1,8.938986778E0,-5.817549825E-1
2.949562044E1,1.305882931E0,9.614361763E0,-3.421736360E-1
2.952895378E1,4.292125702E-1,1.001216793E1,1.992024779E-1
2.956228711E1,7.046862841E-1,1.070698357E1,-4.692923427E-1
2.959562044E1,9.152546525E-1,9.921240807E0,-2.464607358E-1
2.962895377E1,3.427718580E-1,1.045304585E1,-1.173380375E0
2.966228711E1,1.092622638E0,8.661120415E0,-4.884349108E-1
2.969562044E1,4.866403043E-1,9.942776680E0,-5.506483316E-1
2.972895377E1,8.291130662E-1,8.241778374E0,-8.117650747E-1
2.976228711E1,-2.841476910E-2,7.798807144E0,-4.477569461E-1
2.979562044E1,-2.841476910E-2,7.798807144E0,-4.477569461E-1
2.982895377E1,-5.889334679E-1,9.346066475E0,1.319043487E-1
2.986228711E1,-7.567301393E-1,9.748658180E0,3.355933726E-1
2.989562044E1,-7.567301393E-1,9.748658180E0,3.355933726E-1
2.992895377E1,9.272187948E-1,1.121216869E1,-9.604191780E-1
2.996228710E1,-1.674975902E-1,1.004806042E1,-4.094717801E-1
2.999562044E1,9.562317729E-1,1.030678463E1,-7.016952634E-1
3.002895377E1,-1.736291885E0,9.118747711E0,1.540678620E0
3.006228710E1,1.537388563E-1,5.803193092E0,3.092723191E-1
3.009562044E1,-6.128616929E-1,9.643374443E0,-1.290927768E0
3.012895377E1,2.997010350E-1,6.203392506E0,-1.015454054E0
3.016228710E1,-6.705885530E-1,1.033789158E1,-2.390429735E0
3.019562044E1,5.321039557E-1,1.079312611E1,-2.093719784E-3
3.022895377E1,5.321039557E-1,1.079312611E1,-2.093719784E-3
3.026228710E1,-3.279064417E0,9.763015747E0,-3.080759197E-2
3.029562043E1,2.391027927E0,1.333460236E1,-1.046560764E0
3.032895377E1,2.391027927E0,1.333460236E1,-1.046560764E0
3.036228710E1,2.851048231E0,1.095583725E1,-1.738983870E0
3.039562043E1,-1.221535921E0,7.829914093E0,7.549355626E-1
3.042895377E1,2.149053812E0,8.630014420E0,-5.243272781E-1
3.046228710E1,-7.208378315E-1,6.895516872E0,-1.111167073E0
3.049562043E1,-2.141277075E0,6.972385883E0,-1.281356573E0
3.052895376E1,-3.804588020E-1,6.811768055E0,2.590230405E-1
3.056228710E1,-6.248258352E-1,6.768697262E0,-1.169492081E-1
3.059562043E1,3.068794906E-1,8.426324844E0,4.336991161E-2
3.062895376E1,-5.458626747E-1,1.182084274E1,1.007976532E-1
3.066228710E1,-5.458626747E-1,1.182084274E1,1.007976532E-1
3.069562043E1,-3.613162339E-1,1.046022415E1,-2.009970993E-1
3.072895376E1,1.281954765E0,1.090319538E1,-1.245464206E0
3.076228710E1,1.281954765E0,1.090319538E1,-1.245464206E0
3.079562043E1,1.212562919E0,9.408578873E0,9.415757060E-1
3.082895376E1,2.273480654E0,1.010070229E1,-6.320042610E-1
3.086228710E1,-1.937588096E0,7.396214962E0,-9.780662507E-2
3.089562043E1,8.362914920E-1,1.046500969E1,-7.639086246E-1
3.092895376E1,-1.151844978E0,9.274281502E0,1.224527001E0
3.096228709E1,5.249254704E-1,9.427721024E0,6.565307379E-1
3.099562043E1,1.271187067E-1,1.045783138E1,-9.915258884E-1
3.102895376E1,1.595713615E0,1.034506989E1,-5.721837282E-1
3.106228709E1,3.427718580E-1,8.124529839E0,-1.322034478E0
3.109562043E1,3.427718580E-1,8.124529839E0,-1.322034478E0
3.112895376E1,1.181157112E0,8.428717613E0,-5.673980713E-1
3.116228709E1,-1.547258973E0,7.451249599E0,7.788637877E-1
3.119562042E1,-1.547258973E0,7.451249599E0,7.788637877E-1
3.122895376E1,-5.865406394E-1,8.589336395E0,-2.273181528E-1
3.126228709E1,1.609173268E-1,9.370293617E0,-6.993024349E-1
3.129562042E1,5.081757307E-1,9.592825890E0,-1.214357495E0
3.132895376E1,3.260220885E-1,8.043173790E0,2.662015148E-2
3.136228709E1,5.009972453E-1,8.586943626E0,3.355933726E-1
3.139562042E1,1.585244983E-1,9.063413620E0,4.866403043E-1
3.142895376E1,-2.392822653E-1,9.540184021E0,4.220340848E-1
3.146228709E1,1.175474152E-1,8.402397156E0,1.633101404E-1
3.149562042E1,5.847460628E-1,8.919844627E0,-6.128616929E-1
3.152895376E1,-1.001994461E-1,1.212981606E1,-3.559323773E-2
3.156228709E1,1.271187067E-1,8.311469078E0,4.576273263E-2
3.159562042E1,2.973082066E-1,8.158029556E0,-8.344969153E-2
3.162895375E1,2.973082066E-1,8.158029556E0,-8.344969153E-2
3.166228709E1,7.118647099E-1,8.349754333E0,-1.257428288E0
3.169562042E1,-1.875374794E0,7.243073940E0,9.870393202E-3
3.172895375E1,-1.307677627E0,7.317251682E0,1.346560955E0
3.176228709E1,-4.956133962E-1,7.161418915E0,-2.299502611E0
3.179562042E1,3.140579537E-2,9.135498047E0,-3.230310678E-1
3.182895375E1,2.070090771E0,1.166501045E1,-7.375875711E-1
3.186228709E1,1.039980531E0,1.021346474E1,9.705886841E-1
3.189562042E1,-2.871387303E-1,1.094387341E1,1.502393484E0
3.192895375E1,-1.241276711E-1,9.458827972E0,7.070791125E-1
3.196228708E1,9.945169091E-1,9.094520569E0,-3.086741269E-1
3.199562042E1,-1.384247899E0,7.216454029E0,5.608177781E-1
3.202895375E1,2.364706993E0,9.585647583E0,-5.961119533E-1
3.206228708E1,2.364706993E0,9.585647583E0,-5.961119533E-1
3.209562042E1,1.001695395E0,7.139883518E0,8.769695163E-1
3.212895375E1,3.210270643E0,1.183041382E1,-1.504188180E0
3.216228708E1,6.086742878E-1,1.040249729E1,-1.654935956E0
3.219562042E1,1.662712693E0,1.182802105E1,4.073780477E-1
3.222895375E1,-1.914258152E-1,1.022542858E1,-2.123630047E-2
3.226228708E1,-1.283749342E0,8.651549339E0,7.926224917E-2
3.229562041E1,5.057829022E-1,9.001200676E0,7.118647099E-1
3.232895375E1,1.657029688E-1,9.839586258E0,-2.273181528E-1
3.236228708E1,6.349952817E-1,1.164108181E1,-2.395215511E0
3.239562041E1,1.095015407E0,6.363711834E0,1.631605983E0
3.242895375E1,1.175474152E-1,1.246750355E1,-1.041775107E0
3.246228708E1,2.690429926E0,8.960522652E0,-2.114956141E0
3.249562041E1,2.690429926E0,8.960522652E0,-2.114956141E0
3.252895374E1,3.298804998E0,1.394327641E1,2.691925503E-3
3.256228708E1,1.250848055E0,1.063490009E1,-2.893520832E0
3.259562041E1,-2.785544634E0,1.001456070E1,-4.310071766E-1
3.262895374E1,1.303490162E0,1.362203979E1,5.249254704E-1
3.266228708E1,1.370489120E0,1.068275642E1,-2.057827413E-1
3.269562041E1,4.336991161E-2,8.953344345E0,-2.091027975E0
3.272895374E1,2.951546669E0,1.227338600E1,-4.310071766E-1
3.276228708E1,-2.419143677E0,5.582754135E0,-2.416750938E-1
3.279562041E1,-3.679263830E0,4.361218452E0,2.285444736E0
3.282895374E1,2.105983019E0,1.012463093E1,-1.743769526E0
3.286228708E1,-1.782054663E0,6.100202084E0,-6.586244106E-1
3.289562041E1,-3.134597540E-1,8.560322762E0,1.284347534E0
3.292895374E1,-3.134597540E-1,8.560322762E0,1.284347534E0
3.296228707E1,-1.166201949E0,5.918347836E0,3.762713671E-1
3.299562041E1,1.289133191E0,1.258983612E1,1.489532143E-1
3.302895374E1,4.890331328E-1,9.130712509E0,1.322632670E0
3.306228707E1,-1.193420291E-1,1.023499966E1,-2.679961324E-1
3.309562041E1,6.493522525E-1,8.694620132E0,-8.620143533E-1
3.312895374E1,7.956135273E-1,8.093423843E0,-8.105687052E-2
3.316228707E1,5.656034350E-1,8.766405106E0,-7.830511928E-1
3.319562040E1,5.895316601E-1,8.613264084E0,-6.191428751E-2
3.322895374E1,-1.477867126E0,7.604689598E0,5.656034350E-1
3.326228707E1,6.613163352E-1,8.490931511E0,-6.104688644E-1
3.329562040E1,-1.501795292E0,7.808378696E0,-1.645065658E-2
3.332895374E1,8.410771489E-1,1.025174904E1,-9.062815458E-2
3.336228707E1,8.410771489E-1,1.025174904E1,-9.062815458E-2
3.339562040E1,6.711867452E-1,1.007677460E1,-1.097707376E-1
3.342895374E1,7.812566161E-1,1.021107197E1,-4.525425732E-1
3.346228707E1,4.603192508E-1,9.391828537E0,-1.651047617E-1
3.349562040E1,5.584250093E-1,1.039531898E1,-6.879365072E-3
3.352895374E1,1.118943691E0,9.192925453E0,-2.344966233E-1
3.356228707E1,3.308077157E-1,8.653942108E0,-2.344966233E-1
3.359562040E1,5.488536954E-1,9.072985649E0,1.079761237E-1
3.362895373E1,1.085444212E0,9.394221306E0,-6.909275055E-2
3.366228707E1,4.172484577E-1,8.471788406E0,2.374876440E-1
3.369562040E1,9.343972206E-1,8.677870750E0,-1.244267747E-1
3.372895373E1,3.858426511E-1,9.061020851E0,8.165507019E-2
3.376228707E1,8.458628058E-1,9.379864693E0,-1.507478207E-1
3.379562040E1,8.458628058E-1,9.379864693E0,-1.507478207E-1
3.382895373E1,-1.313061416E-1,8.764012337E0,5.297111273E-1
3.386228707E1,7.764709592E-1,9.686445236E0,-1.483550072E-1
3.389562040E1,3.571287692E-1,8.557929993E0,6.708876491E-1
3.392895373E1,9.993025661E-1,9.636196136E0,-6.559324861E-1
3.396228706E1,7.621139884E-1,8.929415703E0,-4.755735025E-2
3.399562040E1,-1.698904037E-1,7.880163193E0,7.262216806E-1
3.402895373E1,1.583749533E0,9.511469841E0,-3.804588020E-1
3.406228706E1,3.236292601E-1,9.005986214E0,-1.244267747E-1
3.409562040E1,8.338986635E-1,9.748658180E0,-9.302098304E-2
3.412895373E1,6.469594240E-1,8.622835159E0,1.728814393E-1
3.416228706E1,5.967101455E-1,9.257532120E0,-2.584248483E-1
3.419562040E1,8.051848412E-1,1.017278671E1,-1.435693651E-1
3.422895373E1,8.051848412E-1,1.017278671E1,-1.435693651E-1
3.426228706E1,1.075872898E0,9.497113228E0,4.244269133E-1
3.429562039E1,1.020837903E0,8.146065712E0,-1.405783277E-2
3.432895373E1,1.020837903E0,8.146065712E0,-1.405783277E-2
3.436228706E1,7.573283911E-1,7.908876896E0,3.523431420E-1
3.439562039E1,-7.866404206E-2,8.050353050E0,-1.145563871E-1
3.442895373E1,1.490429401E0,1.007438183E1,-3.541377485E-1
3.446228706E1,5.054837838E-2,7.920841217E0,2.111666054E-1
3.449562039E1,1.004088163E0,9.370293617E0,1.342971772E-1
3.452895372E1,1.159621716E0,1.063490009E1,-2.249253243E-1
3.456228706E1,4.387838542E-1,8.752047539E0,7.836494446E-1
3.459562039E1,1.864008784E0,9.662516594E0,-4.037888348E-2
3.462895372E1,6.783652306E-1,9.446864128E0,2.183450572E-2
3.466228706E1,6.783652306E-1,9.446864128E0,2.183450572E-2
3.469562039E1,1.044766188E0,9.753444672E0,2.374876440E-1
3.472895372E1,6.206383705E-1,8.874381065E0,3.116651475E-1
3.476228706E1,6.206383705E-1,8.874381065E0,3.116651475E-1
3.479562039E1,5.129613280E-1,9.307781219E0,2.566302419E-1
3.482895372E1,7.668996453E-1,9.204889297E0,5.297111273E-1
3.486228706E1,1.248455167E0,9.070592880E0,8.404789865E-2
3.489562039E1,1.150050402E0,9.865906715E0,1.079761237E-1
3.492895372E1,1.619641781E0,9.243174553E0,1.561316848E-1
3.496228705E1,6.134598851E-1,8.196314812E0,4.576273263E-2
3.499562039E1,1.222134113E0,8.955737114E0,3.140579537E-2
3.502895372E1,1.145264745E0,8.507680893E0,-1.387837082E-1
3.506228705E1,3.954139352E-1,8.773583412E0,6.397809386E-1
3.509562039E1,3.954139352E-1,8.773583412E0,6.397809386E-1
3.512895372E1,2.733799815E-1,7.674081326E0,4.815555736E-2
3.516228705E1,-1.313061416E-1,8.141280174E0,7.525427341E-1
3.519562039E1,-1.313061416E-1,8.141280174E0,7.525427341E-1
3.522895372E1,1.602892041E0,9.499505997E0,2.255235314E-1
3.526228705E1,7.166503668E-1,8.364111900E0,1.389631748E0
3.529562038E1,1.933400750E0,9.133105278E0,6.230311990E-1
3.532895372E1,-1.217348501E-1,8.514859200E0,-2.201396823E-1
3.536228705E1,1.111765265E0,9.856335640E0,4.097708687E-2
3.539562038E1,4.172484577E-1,8.328219414E0,3.930211067E-1
3.542895372E1,1.145264745E0,8.265707016E0,-2.584248483E-1
3.546228705E1,9.056833982E-1,7.458428383E0,-4.310071766E-1
3.549562038E1,5.488536954E-1,9.027522087E0,9.634101987E-1
3.552895372E1,5.488536954E-1,9.027522087E0,9.634101987E-1
3.556228705E1,-4.932205677E-1,8.608478546E0,4.579264224E-1
3.559562038E1,7.621139884E-1,1.339472198E1,3.044866920E-1
3.562895371E1,7.621139884E-1,1.339472198E1,3.044866920E-1
3.566228705E1,3.786641955E-1,9.228817940E0,-3.062812984E-1
3.569562038E1,5.507679462E0,1.046261692E1,-4.268496513E0
3.572895371E1,-1.451246977E0,8.567800522E0,-1.396211982E0
3.576228705E1,7.716853023E-1,8.352147102E0,1.068694472E0
3.579562038E1,5.273182988E-1,7.451249599E0,2.254338026E0
3.582895371E1,-1.678864241E0,1.184477139E1,2.235195398E0
3.586228704E1,5.871388316E-1,1.069232845E1,-3.780659735E-1
3.589562038E1,-1.841875196E0,7.676474094E0,-1.555334777E-1
3.592895371E1,2.685943544E-1,8.594121933E0,-2.512463629E-1
3.596228704E1,2.685943544E-1,8.594121933E0,-2.512463629E-1
3.599562038E1,2.249552488E0,1.208913803E1,-1.520937920E0
3.602895371E1,3.028116941E0,1.342822170E1,-3.355933666E0
3.606228704E1,3.028116941E0,1.342822170E1,-3.355933666E0
3.609562038E1,4.709972382E0,1.619013786E1,-3.516252756E0
3.612895371E1,1.561316848E-1,9.707980156E0,-4.266103745E0
3.616228704E1,-3.499503136E0,7.743473053E0,2.438884497E0
3.619562038E1,1.248455167E0,1.623081589E1,-1.642971873E0
3.622895371E1,-9.843474030E-1,1.106381416E1,-7.399803996E-1
3.626228704E1,-2.440679073E-1,6.380461693E0,-6.535396576E-1
3.629562037E1,-2.344966233E-1,1.049611664E1,8.530412912E-1
3.632895371E1,-9.891330600E-1,7.226324558E0,2.208874464E0
3.636228704E1,3.246163130E0,9.978668213E0,-7.328019142E-1
3.639562037E1,-2.165205479E0,5.621338367E0,-5.458626747E-1
3.642895371E1,2.127518415E0,1.009352398E1,-3.322135210E0
3.646228704E1,-2.102992058E0,7.173383236E0,4.712365150E0
3.649562037E1,-2.102992058E0,7.173383236E0,4.712365150E0
3.652895370E1,9.466604590E-1,9.456435204E0,-9.302098304E-2
3.656228704E1,-1.880160451E0,8.213064194E0,1.602892041E0
3.659562037E1,-2.325823545E0,1.292273808E1,2.340778828E0
3.662895370E1,-1.049850956E-1,1.448704529E1,1.933400750E0
3.666228704E1,-1.365105271E0,6.799803734E0,-9.340981245E-1
3.669562037E1,-8.524430394E-1,5.784050465E0,-1.060917735E0
3.672895370E1,2.662015259E-1,8.965308189E0,-1.556830287E0
3.676228704E1,-1.935195327E0,8.371290207E0,1.926222205E0
3.679562037E1,9.466604590E-1,8.809475899E0,1.578963876E0
3.682895370E1,-2.352144718E0,3.908376694E0,2.304886341E0
3.686228704E1,4.534996986E0,1.151426220E1,-1.851446509E0
3.689562037E1,-3.135494947E0,1.086491013E1,8.410771489E-1
3.692895370E1,-3.135494947E0,1.086491013E1,8.410771489E-1
3.696228703E1,3.858426586E-2,1.157886887E1,9.634101987E-1
3.699562037E1,-1.772483349E0,8.534002304E0,-9.541380405E-2
3.702895370E1,6.254240274E-1,9.410971642E0,-7.950153351E-1
3.706228703E1,5.153541565E-1,9.846764565E0,3.858426586E-2
3.709562037E1,1.344168067E0,9.993025780E0,1.465603858E-1
3.712895370E1,2.327020019E-1,8.459824562E0,-5.051847100E-1
3.716228703E1,-2.362912335E-2,9.111569405E0,-4.262215197E-1
3.719562036E1,-1.930409670E0,6.687041759E0,4.818546474E-1
3.722895370E1,1.907079697E0,8.912666321E0,-1.193420291E-1
3.726228703E1,7.094719410E-1,8.618049622E0,-5.171487927E-1
3.729562036E1,1.175474152E-1,9.696016312E0,-6.729813814E-1
3.732895370E1,-2.955734253E0,5.415256977E0,1.895115495E0
3.736228703E1,-2.955734253E0,5.415256977E0,1.895115495E0
3.739562036E1,-3.684946895E-1,9.810872078E0,-7.399803996E-1
3.742895370E1,6.326025128E-1,1.287727451E1,7.686942816E-2
3.746228703E1,-1.459621787E-1,7.753044605E0,7.788637877E-1
3.749562036E1,2.120339870E0,1.084098244E1,-7.663014531E-1
3.752895370E1,1.555035591E0,1.139192963E1,3.690928817E-1
3.756228703E1,-6.669992954E-2,1.127946663E1,3.714857101E-1
3.759562036E1,1.289133191E0,9.856335640E0,1.097408295E0
3.762895369E1,1.657029688E-1,7.080062866E0,-1.065703392E0
3.766228703E1,-1.015454054E0,7.604689598E0,2.709871531E-1
3.769562036E1,3.954139352E-1,7.319644451E0,-3.517449200E-1
3.772895369E1,-3.373879790E-1,1.026849937E1,3.379862010E-2
3.776228703E1,1.039980531E0,9.921240807E0,-2.105683982E-1
3.779562036E1,1.039980531E0,9.921240807E0,-2.105683982E-1
3.782895369E1,7.549355626E-1,1.048893833E1,4.576273263E-2
3.786228702E1,1.241276741E0,1.041924667E1,-6.343970895E-1
3.789562036E1,-2.270489693E0,6.924230576E0,2.015953064E-1
3.792895369E1,1.470987678E0,1.257757282E1,-1.053739309E0
3.796228702E1,-2.203490496E0,1.136800098E1,2.207378894E-1
3.799562036E1,8.650053740E-1,9.841979027E0,-8.979067206E-1
3.802895369E1,-5.267201066E-1,7.465606689E0,-6.945167780E-1
3.806228702E1,-1.959123492E0,5.031806946E0,9.753743410E-1
3.809562036E1,5.533402413E-2,9.923633575E0,3.068794906E-1
3.812895369E1,-4.088735580E0,5.594718456E0,1.406381488E0
3.816228702E1,-3.397808075E-1,2.806481838E0,9.248259664E-1
3.819562036E1,2.331207514E0,1.262572861E1,-2.362912335E-2
3.822895369E1,2.331207514E0,1.262572861E1,-2.362912335E-2
3.826228702E1,3.545564890E0,1.166740322E1,-6.897311211E-1
3.829562035E1,-1.170987606E0,1.205324554E1,4.336991161E-2
3.832895369E1,2.891726255E0,1.162672520E1,-1.841875196E0
3.836228702E1,7.357929349E-1,9.068199158E0,2.327020019E-1
3.839562035E1,1.988435626E0,1.098006535E1,3.475574851E-1
3.842895369E1,1.099801064E0,8.637192726E0,7.956135273E-1
3.846228702E1,2.079662085E0,5.175675392E0,-8.380861282E-1
3.849562035E1,1.480858088E0,1.381615829E1,-1.789233088E0
3.852895369E1,6.975077987E-1,1.126750278E1,-5.458626747E-1
3.856228702E1,8.673982024E-1,7.360322475E0,1.083051324E0
3.859562035E1,-1.374676585E0,7.882555962E0,1.226919770E0
3.862895368E1,2.678465843E0,1.134646606E1,1.121336460E0
3.866228702E1,2.678465843E0,1.134646606E1,1.121336460E0
3.869562035E1,-7.375875711E-1,6.716054916E0,1.495215058E0
3.872895368E1,1.444666624E0,8.505288124E0,3.188436031E-1
3.876228702E1,1.444666624E0,8.505288124E0,3.188436031E-1
3.879562035E1,1.811366796E0,7.137490749E0,-4.237389565E0
3.882895368E1,-1.355534077E0,7.611867905E0,2.422732860E-1
3.886228702E1,-1.554437399E0,9.212067604E0,1.830509305E0
3.889562035E1,1.470987678E0,9.918848038E0,-8.045865893E-1
3.892895368E1,1.513460279E-1,1.199791145E1,-1.513759375E0
3.896228701E1,-4.812564552E-1,1.098724365E1,-9.556335211E-1
3.899562035E1,1.485643744E0,1.039771175E1,1.277169108E0
3.902895368E1,7.070791125E-1,9.029914856E0,-2.033899277E-1
3.906228701E1,4.815555736E-2,9.521040916E0,6.661019921E-1
3.909562035E1,4.815555736E-2,9.521040916E0,6.661019921E-1
3.912895368E1,2.039881349E-1,8.972486496E0,-5.497509956E0
3.916228701E1,-2.716152906E0,5.443970680E0,4.842474759E-1
3.919562034E1,-2.716152906E0,5.443970680E0,4.842474759E-1
3.922895368E1,4.403092861E0,9.190532684E0,-2.110170364E0
3.926228701E1,-9.795617461E-1,6.873981476E0,5.249254704E-1
3.929562034E1,1.051944613E0,1.027567768E1,-2.123630047E-2
3.932895368E1,1.470987678E0,9.952347755E0,3.212364316E-1
3.936228701E1,5.416752100E-1,1.196919823E1,-5.315057039E-1
3.939562034E1,-2.464607358E-1,1.065643597E1,5.751747489E-1
3.942895368E1,2.525026083E0,1.434796238E1,-8.835497499E-1
3.946228701E1,2.175374985E0,1.428335667E1,-8.285148144E-1
3.949562034E1,9.343972206E-1,1.066122150E1,2.662015259E-1
3.952895368E1,9.343972206E-1,1.066122150E1,2.662015259E-1
3.956228701E1,-7.399803996E-1,8.903095245E0,-3.637090325E-1
3.959562034E1,1.622034669E0,5.276174068E0,-1.530509233E0
3.962895367E1,-6.415755749E-1,8.174779892E0,1.490429401E0
3.966228701E1,-1.257428288E0,7.865806103E0,-6.945167780E-1
3.969562034E1,-2.567797899E0,1.304387450E0,1.470987678E0
3.972895367E1,-3.080759197E-2,1.016770172E1,4.172484577E-1
3.976228701E1,-3.399004459E0,5.642873764E0,6.951149702E-1
3.979562034E1,1.265205026E0,1.010548782E1,-7.088736892E-1
3.982895367E1,1.806581140E0,1.241964722E1,-3.517449200E-1
3.986228701E1,-1.092024446E0,1.161715412E1,-1.645065658E-2
3.989562034E1,-1.603191197E-1,1.180170059E1,1.205085278E0
3.992895367E1,-8.835497499E-1,9.041878700E0,1.116550922E0
3.996228700E1,-8.835497499E-1,9.041878700E0,1.116550922E0
3.999562034E1,-1.094417214E0,7.003492832E0,1.016052365E0
4.002895367E1,1.042373419E0,9.513862610E0,5.679962635E-1
4.006228700E1,1.042373419E0,9.513862610E0,5.679962635E-1
4.009562034E1,-5.841478109E-1,8.670691490E0,9.367900491E-1
4.012895367E1,1.393819153E-1,7.441678524E0,2.159522474E-1
4.016228700E1,-3.756731451E-1,9.777372360E0,-6.104688644E-1
4.019562034E1,1.223330572E-1,7.944769382E0,1.552642822E0
4.022895367E1,-1.058524966E0,7.719544888E0,7.884350419E-1
4.026228700E1,7.926224917E-2,8.682656288E0,2.901297435E-2
4.029562033E1,-9.026923180E-1,9.537791252E0,-2.727817893E-1
4.032895367E1,-8.452646136E-1,8.565407753E0,4.986044168E-1
4.036228700E1,5.967101455E-1,9.561718941E0,1.090229869E0
4.039562033E1,5.967101455E-1,9.561718941E0,1.090229869E0
4.042895367E1,4.052843451E-1,1.031157017E1,-3.086741269E-1
4.046228700E1,7.764709592E-1,1.019910717E1,1.199402362E-1
4.049562033E1,7.764709592E-1,1.019910717E1,1.199402362E-1
4.052895366E1,1.507179141E0,1.430010605E1,-5.769693851E-1
4.056228700E1,1.298704505E0,1.344497108E1,-2.727817893E-1
4.059562033E1,2.379063845E0,9.264710426E0,-3.729513168E0
4.062895366E1,1.085444212E0,8.074280739E0,5.703890920E-1
4.066228700E1,1.425524116E0,9.844371796E0,-1.671685696E0
4.069562033E1,-8.141579032E-1,6.806982040E0,-2.148455620E0
4.072895366E1,8.075776696E-1,8.383254051E0,8.961120844E-1
4.076228700E1,4.268197417E-1,1.010788059E1,9.367900491E-1
4.079562033E1,1.734497309E0,9.283852577E0,7.788637877E-1
4.082895366E1,1.734497309E0,9.283852577E0,7.788637877E-1
4.086228700E1,1.451845169E0,1.141585732E1,-7.232306600E-1
4.089562033E1,-1.717149377E0,8.917451859E0,2.255235314E-1
4.092895366E1,-1.717149377E0,8.917451859E0,2.255235314E-1
4.096228699E1,3.495315790E0,1.166740322E1,4.579264224E-1
4.099562033E1,2.279163599E-1,1.006480980E1,-5.961119533E-1
4.102895366E1,-3.900300860E-1,8.457431793E0,3.523431420E-1
4.106228699E1,-2.790330410E0,5.714658737E0,7.788637877E-1
4.109562033E1,1.483250976E0,9.849157333E0,-5.712864175E-2
4.112895366E1,1.059123158E0,8.232207298E0,6.397809386E-1
4.116228699E1,1.025623560E0,1.010309505E1,-1.295713425E0
4.119562032E1,1.665105462E0,8.898308754E0,-4.136891365E0
4.122895366E1,-4.457828522E0,9.221639633E0,7.740781307E-1
4.126228699E1,1.334596872E0,1.023978519E1,8.626125455E-1
4.129562032E1,-2.967100143E-1,6.967600346E0,3.619144261E-1
4.132895366E1,-5.458626747E-1,9.123533249E0,3.667000830E-1
4.136228699E1,-5.458626747E-1,9.123533249E0,3.667000830E-1
4.139562032E1,1.341775298E0,9.310173988E0,-4.716851711E-1
4.142895366E1,-4.405784607E-1,7.182954311E0,-4.573282301E-1
4.146228699E1,5.033900738E-1,1.105902767E1,-9.556335211E-1
4.149562032E1,-1.367498159E0,1.004566765E1,7.214360237E-1
4.152895366E1,-7.184450030E-1,8.857631683E0,1.752742529E-1
4.156228699E1,1.020837903E0,9.698409081E0,-1.125523925E0
4.159562032E1,4.866403043E-1,9.707980156E0,1.800599098E-1
4.162895365E1,1.674676776E0,9.698409081E0,-7.866404206E-2
4.166228699E1,3.643072546E-1,9.142676353E0,-3.080759197E-2
4.169562032E1,-1.166201949E0,8.452646255E0,2.518445849E-1
4.172895365E1,8.745766878E-1,9.856335640E0,2.662015259E-1
4.176228699E1,4.220340848E-1,8.026124954E0,-5.841478109E-1
4.179562032E1,4.220340848E-1,8.026124954E0,-5.841478109E-1
4.182895365E1,1.116550922E0,1.001456070E1,1.127617657E-1
4.186228699E1,-1.607079506E0,7.829914093E0,2.446661144E-1
4.189562032E1,1.087836981E0,9.549755096E0,-6.104688644E-1
4.192895365E1,-8.237292171E-1,7.999804497E0,-7.148557901E-2
4.196228698E1,1.444666624E0,1.130818081E1,5.084747914E-3
4.199562032E1,-1.089631557E0,9.808479309E0,1.071087241E0
4.202895365E1,1.636391640E0,9.851550102E0,2.829512656E-1
4.206228698E1,1.406381488E0,1.024696350E1,-1.048953652E0
4.209562032E1,-2.512463629E-1,9.456435204E0,-3.756731451E-1
4.212895365E1,7.262216806E-1,9.305388451E0,2.590230405E-1
4.216228698E1,1.393819153E-1,8.426324844E0,2.542374134E-1
4.219562032E1,6.011966988E-2,9.051449776E0,1.513460279E-1
4.222895365E1,6.011966988E-2,9.051449776E0,1.513460279E-1
4.226228698E1,-4.238287210E-1,7.379465103E0,-1.001994461E-1
4.229562031E1,2.733799815E-1,9.283852577E0,-6.801598072E-1
4.232895365E1,3.403790295E-1,7.621439457E0,-3.517449200E-1
4.236228698E1,2.973082066E-1,1.114995575E1,6.278168559E-1
4.239562031E1,6.230311990E-1,1.154058361E1,4.651049078E-1
4.242895365E1,-5.473581702E-2,1.146132183E1,3.451646566E-1
4.246228698E1,-2.081755698E-1,1.077398300E1,1.066301584E0
4.249562031E1,9.601201117E-2,1.125314617E1,1.824527234E-1
4.252895364E1,1.197906852E0,1.168415260E1,-4.453641176E-1
4.256228698E1,1.389631748E0,9.521040916E0,-2.129612118E-1
4.259562031E1,3.978067636E-1,7.937591076E0,-5.051847100E-1
4.262895364E1,9.200403094E-1,8.373682976E0,-1.499402523E0
4.266228698E1,9.200403094E-1,8.373682976E0,-1.499402523E0
4.269562031E1,1.897508383E0,8.467002869E0,-3.451646566E0
4.272895364E1,-2.160419703E0,7.123134136E0,6.975077987E-1
4.276228698E1,9.122636169E-2,9.123533249E0,-1.073779166E-1
4.279562031E1,-1.336989701E-1,8.107780457E0,-8.261220455E-1
4.282895364E1,5.153541565E-1,1.143260765E1,-5.362913609E-1
4.286228698E1,1.068694472E0,1.560090446E1,-1.405783277E-2
4.289562031E1,-7.974081635E-1,1.442214012E1,2.592324257E0
4.292895364E1,4.268197417E-1,8.124529839E0,-3.798605874E-2
4.296228697E1,1.832902193E0,1.193809128E1,-1.638186216E0
4.299562031E1,-7.232306600E-1,8.986844063E0,9.104689956E-1
4.302895364E1,-9.122636318E-1,5.712265968E0,1.121336460E0
4.306228697E1,-9.987043738E-1,3.697509289E0,1.296311617E0
4.309562031E1,-9.987043738E-1,3.697509289E0,1.296311617E0
4.312895364E1,-2.347358942E0,9.391828537E0,-5.913262963E-1
4.316228697E1,-1.319641709E0,6.854838848E0,1.657029688E-1
4.319562031E1,1.286740422E0,8.934201241E0,6.158527136E-1
4.322895364E1,-2.414358139E0,9.703194618E0,6.110670567E-1
4.326228697E1,1.765903115E0,9.786943436E0,9.610173702E-1
4.329562030E1,6.469594240E-1,8.143672943E0,4.172484577E-1
4.332895364E1,9.370891452E-1,1.074766159E1,-2.021636009E0
4.336228697E1,-4.118646085E-1,1.304716492E1,6.493522525E-1
4.339562030E1,-1.235892892E0,7.151847839E0,6.903293133E-1
4.342895364E1,8.602197170E-1,1.002652550E1,-5.315057039E-1
4.346228697E1,-1.801197290E0,7.995018482E0,8.267202377E-1
4.349562030E1,2.255235314E-1,7.954340458E0,1.104586720E0
4.352895364E1,2.255235314E-1,7.954340458E0,1.104586720E0
4.356228697E1,-1.935195327E0,7.432106972E0,4.336991161E-2
4.359562030E1,1.202692509E0,9.154640198E0,7.357929349E-1
4.362895363E1,1.957328916E0,9.338887215E0,-7.854440212E-1
4.366228697E1,1.844866276E0,9.025128365E0,-3.661018610E-1
4.369562030E1,1.334596872E0,9.209674835E0,-3.999004960E-1
4.372895363E1,-1.568794370E0,8.162815094E0,-2.841476910E-2
4.376228697E1,9.705886841E-1,9.547362328E0,1.295115203E-1
4.379562030E1,-1.255035520E0,7.089634418E0,3.451646566E-1
4.382895363E1,1.150050402E0,1.179212952E1,-3.230310678E-1
4.386228696E1,-2.064706802E0,8.186743736E0,1.920240223E-1
4.389562030E1,1.175474152E-1,1.059900761E1,-6.669992954E-2
4.392895363E1,5.464608669E-1,1.112602711E1,2.111666054E-1
4.396228696E1,5.464608669E-1,1.112602711E1,2.111666054E-1
4.399562030E1,7.956135273E-1,9.772586823E0,8.404789865E-2
4.402895363E1,3.140579760E-1,8.471788406E0,3.044866920E-1
4.406228696E1,3.140579760E-1,8.471788406E0,3.044866920E-1
4.409562030E1,5.823532343E-1,8.364111900E0,2.757728100E-1
4.412895363E1,2.111666054E-1,7.329215527E0,6.062814593E-1
4.416228696E1,-6.729813814E-1,8.248956680E0,5.775675774E-1
4.419562030E1,1.265205026E0,8.349754333E0,-3.780659735E-1
4.422895363E1,2.853440940E-1,8.490931511E0,3.595215976E-1
4.426228696E1,4.268197417E-1,8.864809990E0,-5.721837282E-1
4.429562029E1,4.507479668E-1,1.096540928E1,2.039881349E-1
4.432895363E1,9.296116233E-1,9.796515465E0,1.271187067E-1
4.436228696E1,9.921240807E-1,1.004566765E1,1.752742529E-1
4.439562029E1,9.921240807E-1,1.004566765E1,1.752742529E-1
4.442895363E1,-4.755735025E-2,1.093190956E1,9.586246014E-1
4.446228696E1,1.348953724E0,9.964311600E0,-2.392822653E-1
4.449562029E1,1.348953724E0,9.964311600E0,-2.392822653E-1
4.452895362E1,9.825528264E-1,8.091031075E0,2.949153781E-1
4.456228696E1,-1.866401732E-1,9.623932838E0,-4.755735025E-2
4.459562029E1,8.195417523E-1,1.030199909E1,-5.697908998E-1
4.462895362E1,2.063809484E-1,9.928419113E0,1.537388563E-1
4.466228696E1,4.459623098E-1,9.312566757E0,-3.493520916E-1
4.469562029E1,-3.900300860E-1,8.608478546E0,2.691925503E-3
4.472895362E1,3.427718580E-1,8.852845192E0,1.028016448E0
4.476228696E1,1.923829436E0,1.162193966E1,-2.270788670E0
4.479562029E1,-4.553541660E0,6.208178520E0,7.501499057E-1
4.482895362E1,-4.553541660E0,6.208178520E0,7.501499057E-1
4.486228696E1,4.316053987E-1,7.604689598E0,1.207478166E0
4.489562029E1,9.870393202E-3,1.086730289E1,1.978864312E0
4.492895362E1,9.870393202E-3,1.086730289E1,1.978864312E0
4.496228695E1,-8.476574421E-1,9.204889297E0,-2.297109663E-1
4.499562029E1,-2.093420744E0,6.244070530E0,-7.208378315E-1
4.502895362E1,5.488536954E-1,1.000020409E1,1.593320727E0
4.506228695E1,1.653141379E0,9.722337723E0,5.488536954E-1
4.509562029E1,7.860422134E-1,8.098209381E0,7.405785918E-1
4.512895362E1,1.370489120E0,1.184477139E1,-1.197607756E0
4.516228695E1,5.919244885E-1,1.134168053E1,1.243669510E0
4.519562029E1,1.118943691E0,8.836095810E0,1.183549881E0
4.522895362E1,5.772684515E-2,5.764907837E0,-1.336391449E0
4.526228695E1,2.453241348E0,1.438624763E1,-1.420140266E0
4.529562028E1,-2.543869495E0,7.135097980E0,2.067697763E0
4.532895362E1,2.726322412E0,1.196680546E1,8.362914920E-1
4.536228695E1,2.726322412E0,1.196680546E1,8.362914920E-1
4.539562028E1,1.923829436E0,1.322213936E1,-2.123630047E-2
4.542895362E1,2.132304192E0,1.156211948E1,4.815555736E-2
4.546228695E1,-2.169991016E0,6.476473808E0,7.447660714E-2
4.549562028E1,9.490532875E-1,9.985847473E0,-5.697908998E-1
4.552895362E1,-1.805982947E0,7.001100063E0,1.480558991E0
4.556228695E1,1.178764224E0,8.644371033E0,2.135594189E-1
4.559562028E1,-2.123630047E-2,6.011667728E0,-7.423732281E-1
4.562895361E1,3.427718580E-1,5.748157978E0,2.239981174E0
4.566228695E1,3.464209080E0,1.166740322E1,8.889335990E-1
4.569562028E1,3.464209080E0,1.166740322E1,8.889335990E-1
4.572895361E1,-9.272187948E-3,7.161418915E0,1.641177177E0
4.576228695E1,-9.508479238E-1,1.036660480E1,5.632106066E-1
4.579562028E1,-9.508479238E-1,1.036660480E1,5.632106066E-1
4.582895361E1,-7.758727670E-1,9.410971642E0,-2.560320199E-1
4.586228694E1,1.250848055E0,6.191428661E0,-5.362913609E-1
4.589562028E1,2.839084148E0,1.649911118E1,-1.923231244E0
4.592895361E1,-1.121635586E-1,6.692126751E0,2.223231316E0
4.596228694E1,2.062912226E0,9.456435204E0,2.087737769E-1
4.599562028E1,4.001995921E-1,8.713762283E0,-6.909275055E-2
4.602895361E1,-4.477569461E-1,1.061575794E1,-3.014956415E-1
4.606228694E1,1.504786372E0,1.056550884E1,-3.062812984E-1
4.609562028E1,-7.304090858E-1,6.826124668E0,1.016052365E0
4.612895361E1,2.340778828E0,1.214177990E1,-9.723833203E-1
4.616228694E1,2.183450572E-2,1.053679466E1,1.945364833E0
4.619562028E1,2.443670034E0,1.112363434E1,1.449452281E0
4.622895361E1,2.443670034E0,1.112363434E1,1.449452281E0
4.626228694E1,-1.829911113E0,4.085744858E0,8.961120844E-1
4.629562027E1,-1.022632599E0,7.092027187E0,-1.459621787E-1
4.632895361E1,6.903293133E-1,1.143739319E1,3.690928817E-1
4.636228694E1,-1.911267042E0,8.934201241E0,1.923829436E0
4.639562027E1,4.076771438E-1,4.876273632E0,1.964507341E0
4.642895361E1,1.562214136E0,1.030439186E1,-6.879365072E-3
4.646228694E1,-1.238285661E0,9.494720459E0,2.111666054E-1
4.649562027E1,1.188335538E0,1.085773182E1,2.419741869E0
4.652895361E1,3.833002806E0,1.087208843E1,-1.197607756E0
4.656228694E1,2.953939438E0,1.083619690E1,-1.483550072E-1
4.659562027E1,2.065304995E0,1.068036366E1,-1.216750264E0
4.662895360E1,-6.535396576E-1,7.633403301E0,5.679962635E-1
4.666228694E1,-6.535396576E-1,7.633403301E0,5.679962635E-1
4.669562027E1,-6.224330068E-1,9.329316139E0,9.200403094E-1
4.672895360E1,6.254240274E-1,1.023499966E1,7.190431952E-1
4.676228694E1,9.801599979E-1,1.040728283E1,2.805584669E-1
4.679562027E1,1.992024779E-1,8.996415138E0,1.489532143E-1
4.682895360E1,8.769695163E-1,8.610871315E0,-9.723833203E-1
4.686228694E1,1.680957973E-1,9.029914856E0,-2.703889608E-1
4.689562027E1,1.078265667E0,9.504291534E0,7.447660714E-2
4.692895360E1,5.416752100E-1,9.269495964E0,6.756733060E-1
4.696228693E1,3.329911709E0,1.213460159E1,-9.604191780E-1
4.699562027E1,-2.165205479E0,6.795018196E0,1.897508383E0
4.702895360E1,9.056833982E-1,9.564111710E0,-4.668995142E-1
4.706228693E1,6.661019921E-1,1.051286602E1,-1.480259895E0
4.709562027E1,6.661019921E-1,1.051286602E1,-1.480259895E0
4.712895360E1,6.062814593E-1,8.086244583E0,9.870393202E-3
4.716228693E1,5.440680385E-1,9.700801849E0,7.525427341E-1
4.719562026E1,2.276172638E0,9.566504478E0,-3.825226068E0
4.722895360E1,1.720140338E0,9.765408516E0,-8.117650747E-1
4.726228693E1,6.783652306E-1,1.191176987E1,-1.317248821E0
4.729562026E1,9.176474810E-1,9.197710991E0,-2.052742720E0
4.732895360E1,3.008974552E0,1.195005512E1,-4.980062246E-1
4.736228693E1,6.445665956E-1,9.461220741E0,-1.507478207E-1
4.739562026E1,2.070090771E0,1.138475132E1,2.398804724E-1
4.742895360E1,-2.208276272E0,7.293323517E0,-8.344969153E-2
4.746228693E1,9.394819736E-1,1.084337521E1,-7.471588850E-1
4.749562026E1,1.950150490E0,9.576076508E0,-6.463612318E-1
4.752895360E1,1.950150490E0,9.576076508E0,-6.463612318E-1
4.756228693E1,1.250848055E0,1.146610737E1,-9.628120065E-1
4.759562026E1,4.316053987E-1,8.625227928E0,-4.037888348E-2
4.762895359E1,5.775675774E-1,6.097809315E0,-1.168594718E0
4.766228693E1,1.569392562E0,6.952944279E0,-1.245464206E0
4.769562026E1,-7.136593461E-1,1.006241703E1,9.870393202E-3
4.772895359E1,1.031904742E-1,1.039771175E1,4.097708762E-1
4.776228693E1,1.992024779E-1,8.814261436E0,8.985049129E-1
4.779562026E1,2.542374134E-1,8.637192726E0,-1.393819213E0
4.782895359E1,1.207777262E0,9.623932838E0,-5.554339290E-1
4.786228693E1,5.533402413E-2,8.747262001E0,-8.572286963E-1
4.789562026E1,-5.315057039E-1,9.703194618E0,-2.105683982E-1
4.792895359E1,1.351346612E0,9.157032967E0,-1.268195957E-1
4.796228692E1,1.351346612E0,9.157032967E0,-1.268195957E-1
4.799562026E1,5.249254704E-1,1.056790161E1,-4.453641176E-1
4.802895359E1,2.949153781E-1,1.106142044E1,-4.429712892E-1
4.806228692E1,2.949153781E-1,1.106142044E1,-4.429712892E-1
4.809562026E1,-4.277170449E-2,8.898308754E0,9.840483218E-2
4.812895359E1,1.950150490E0,1.080269718E1,-3.804588020E-1
4.816228692E1,1.078265667E0,7.650153160E0,-6.176473498E-1
4.819562026E1,6.807580590E-1,8.011768341E0,-6.415755749E-1
4.822895359E1,6.014958024E-1,8.888737679E0,-8.584251255E-2
4.826228692E1,3.355933726E-1,8.922237396E0,7.208377868E-2
4.829562025E1,-8.691928387E-1,7.017849922E0,9.463613629E-1
4.832895359E1,1.679462433E0,8.742476463E0,-8.644071817E-1
4.836228692E1,-1.986042857E-1,9.899406433E0,3.523431420E-1
4.839562025E1,-1.986042857E-1,9.899406433E0,3.523431420E-1
4.842895359E1,3.164508045E-1,1.003609657E1,-7.447660565E-1
4.846228692E1,7.668996453E-1,8.807083130E0,-8.404789567E-1
4.849562025E1,7.668996453E-1,8.807083130E0,-8.404789567E-1
4.852895359E1,1.636391640E0,9.719944954E0,-1.087238789E0
4.856228692E1,2.218445778E0,1.062772179E1,-2.713759899E0
4.859562025E1,-1.559223056E0,9.583254814E0,-2.847459018E-1
4.862895358E1,1.840080619E0,1.219202995E1,-2.321037948E-1
4.866228692E1,-4.357928336E-1,1.027089214E1,1.680957973E-1
4.869562025E1,-5.234299600E-2,8.713762283E0,-7.399803996E-1
4.872895358E1,7.597211599E-1,9.705587387E0,-4.037888348E-2
4.876228692E1,1.746760488E0,1.040010452E1,1.295115203E-1
4.879562025E1,1.533500195E0,7.283751965E0,-4.357928336E-1
4.882895358E1,1.533500195E0,7.283751965E0,-4.357928336E-1
4.886228692E1,7.208377868E-2,7.590332508E0,-6.224330068E-1
4.889562025E1,4.818546474E-1,7.022635460E0,-2.898306370E0
4.892895358E1,4.818546474E-1,7.022635460E0,-2.898306370E0
4.896228691E1,-1.623829246E0,8.931808472E0,-2.407179594E0
4.899562025E1,-7.088736892E-1,8.361719131E0,-5.626124144E-1
4.902895358E1,6.927221417E-1,1.052483082E1,1.061515927E0
4.906228691E1,4.962115884E-1,1.004806042E1,-6.511468887E-1
4.909562025E1,1.451845169E0,1.120738316E1,-6.729813814E-1
4.912895358E1,4.097708687E-2,9.221639633E0,-3.206382394E-1
4.916228691E1,1.911865234E0,1.179691505E1,-7.567301393E-1
4.919562024E1,6.206383705E-1,8.924630165E0,-7.064808607E-1
4.922895358E1,1.848455518E-1,8.016553879E0,-2.991028428E-1
4.926228691E1,1.848455518E-1,8.016553879E0,-2.991028428E-1
4.929562024E1,7.812566161E-1,8.158029556E0,-7.758727670E-1
4.932895358E1,1.277169108E0,7.592725277E0,-1.022632599E0
4.936228691E1,1.277169108E0,7.592725277E0,-1.022632599E0
4.939562024E1,7.453642488E-1,8.239385605E0,6.110670567E-1
4.942895358E1,9.586246014E-1,8.018946648E0,1.920240223E-1
4.946228691E1,5.225326419E-1,9.319745064E0,1.704886109E-1
4.949562024E1,4.986044168E-1,9.731908798E0,1.438684613E-1
4.952895358E1,9.873384237E-1,9.530612946E0,-1.794617027E-1
4.956228691E1,5.919244885E-1,9.317352295E0,5.799604058E-1
4.959562024E1,4.866403043E-1,1.018953609E1,7.238288522E-1
4.962895357E1,3.332005441E-1,1.068754196E1,2.662015259E-1
4.966228691E1,1.157228827E0,9.674481392E0,-4.884349108E-1
4.969562024E1,1.157228827E0,9.674481392E0,-4.884349108E-1
4.972895357E1,6.975077987E-1,8.821439743E0,4.576273263E-2
4.976228691E1,9.849455953E-1,7.724330425E0,-6.535396576E-1
4.979562024E1,9.849455953E-1,7.724330425E0,-6.535396576E-1
4.982895357E1,4.316053987E-1,7.662117004E0,2.709871531E-1
4.986228691E1,1.380060434E0,8.965308189E0,-7.615157962E-1
4.989562024E1,1.638784409E0,9.082556725E0,2.805584669E-1
4.992895357E1,-1.111167073E0,7.865806103E0,9.439685345E-1
4.996228690E1,2.165803671E0,1.002413273E1,4.459623098E-1
4.999562024E1,7.597211599E-1,1.008395290E1,6.517450809E-1
5.002895357E1,4.842474759E-1,1.125793171E1,3.236292601E-1
5.006228690E1,2.161017895E0,1.187109184E1,-3.999004960E-1
5.009562024E1,3.499503136E-1,8.670691490E0,7.477570791E-3
5.012895357E1,3.499503136E-1,8.670691490E0,7.477570791E-3
5.016228690E1,-6.191428751E-2,7.568797112E0,2.925225794E-1
5.019562024E1,2.422134638E0,1.126750278E1,-1.405783277E-2
5.022895357E1,2.422134638E0,1.126750278E1,-1.405783277E-2
5.026228690E1,1.655534148E0,8.903095245E0,6.349952817E-1
5.029562023E1,-1.880160451E0,5.520540714E0,3.427718580E-1
5.032895357E1,9.610173702E-1,9.072985649E0,3.619144261E-1
5.036228690E1,-1.044167995E0,8.586943626E0,7.453642488E-1
5.039562023E1,2.007877350E0,9.255139351E0,-1.200000525E0
5.042895357E1,-1.755733609E0,7.628617764E0,-4.549354017E-1
5.046228690E1,2.467598438E0,1.146371460E1,1.319043487E-1
5.049562023E1,-1.238285661E0,5.834300041E0,5.536393523E-1
5.052895356E1,-8.021938205E-1,1.048893833E1,-1.986042857E-1
5.056228690E1,2.587538481E0,1.247228909E1,-6.586244106E-1
5.059562023E1,-2.529213428E0,8.591729164E0,2.601895571E0
5.062895356E1,2.534597397E0,1.460190105E1,-6.128616929E-1
5.066228690E1,2.534597397E0,1.460190105E1,-6.128616929E-1
5.069562023E1,-1.333998680E0,6.308676720E0,1.181157112E0
5.072895356E1,2.786142826E0,1.258505058E1,-1.207179070E0
5.076228690E1,5.392823815E-1,1.066361427E1,1.226321608E-2
5.079562023E1,-1.507478207E-1,7.916055679E0,9.391828775E-1
5.082895356E1,2.431705952E0,1.101356411E1,1.199402362E-1
5.086228690E1,-1.818545163E-1,1.046979523E1,2.757728100E-1
5.089562023E1,1.576570988E0,8.613264084E0,9.200403094E-1
5.092895356E1,3.834498227E-1,7.216454029E0,-1.077667475E0
5.096228689E1,-2.775973320E0,6.265605927E0,1.686640859E0
5.099562023E1,4.962115884E-1,1.144457150E1,2.159522474E-1
5.102895356E1,-1.651047617E-1,9.777372360E0,1.342971772E-1
5.106228689E1,1.470987678E0,1.059422207E1,-6.873382926E-1
5.109562023E1,1.470987678E0,1.059422207E1,-6.873382926E-1
5.112895356E1,1.962114573E0,1.244118214E1,-8.823533356E-2
5.116228689E1,-2.847459018E-1,9.461220741E0,-1.065703392E0
5.119562023E1,1.557428479E0,1.022303581E1,-8.787640929E-1
5.122895356E1,1.752742529E-1,9.710372925E0,1.776670814E-1
5.126228689E1,1.317847013E0,9.971489906E0,-3.080759197E-2
5.129562022E1,2.638086975E-1,8.505288124E0,-2.009970993E-1
5.132895356E1,-7.232306600E-1,6.775875568E0,1.368096352E0
5.136228689E1,-6.463612318E-1,9.159425735E0,1.598106384E0
5.139562022E1,1.782652855E0,9.765408516E0,6.756733060E-1
5.142895356E1,2.685943544E-1,7.456035137E0,-1.169492081E-1
5.146228689E1,1.408774376E0,8.134101868E0,-5.410770178E-1
5.149562022E1,-1.592722535E0,7.429714203E0,-3.158525825E-1
5.152895356E1,-1.592722535E0,7.429714203E0,-3.158525825E-1
5.156228689E1,-1.628614902E0,8.874381065E0,6.684948206E-1
5.159562022E1,1.099801064E0,1.042642593E1,-2.727817893E-1
5.162895355E1,1.787438512E0,1.156211948E1,-1.073779166E-1
5.166228689E1,1.492822170E0,1.105663490E1,1.728814393E-1
5.169562022E1,2.122732878E0,8.474181175E0,-2.321037948E-1
5.172895355E1,1.169192910E0,7.834699631E0,-1.343569875E0
5.176228689E1,1.401595831E0,9.705587387E0,-6.415755749E-1
5.179562022E1,1.622034669E0,9.904491425E0,-3.975076675E-1
5.182895355E1,-5.482555032E-1,8.883952141E0,5.105685592E-1
5.186228688E1,9.610173702E-1,8.356932640E0,5.847460628E-1
5.189562022E1,-4.740779996E-1,9.360423088E0,7.956135273E-1
5.192895355E1,5.416752100E-1,1.049133110E1,1.102193952E0
5.196228688E1,5.416752100E-1,1.049133110E1,1.102193952E0
5.199562022E1,1.523928881E0,1.159801102E1,-1.818545163E-1
5.202895355E1,1.044766188E0,9.841979027E0,-7.136593461E-1
5.206228688E1,1.173978567E0,1.044108200E1,-1.911267042E0
5.209562022E1,7.980063558E-1,9.952347755E0,5.321039557E-1
5.212895355E1,4.914259613E-1,7.374679565E0,1.465603895E-2
5.216228688E1,9.296116233E-1,1.074766159E1,-1.901695848E0
5.219562022E1,-3.876372576E-1,7.844270706E0,1.289133191E0
5.222895355E1,1.317847013E0,8.620442390E0,3.690928817E-1
5.226228688E1,5.560321808E-1,9.015557289E0,-5.243272781E-1
5.229562021E1,1.345962733E-1,7.044170856E0,-1.651047617E-1
5.232895355E1,7.262216806E-1,1.084098244E1,-2.823530734E-1
5.236228688E1,-3.852444589E-1,9.739087105E0,-9.604191780E-1
5.239562021E1,-3.852444589E-1,9.739087105E0,-9.604191780E-1
5.242895355E1,1.353739381E0,1.075723362E1,-8.907282352E-1
5.246228688E1,3.212364316E-1,1.106142044E1,-6.032904387E-1
5.249562021E1,1.226321608E-2,9.657731056E0,-1.938186288E-1
5.252895354E1,3.451646566E-1,1.017517948E1,1.138086319E0
5.256228688E1,7.357929349E-1,9.267103195E0,4.196412563E-1
5.259562021E1,-5.051847100E-1,8.570193291E0,2.350948304E-1
5.262895354E1,6.759724021E-1,8.356932640E0,-1.292124242E-1
5.266228688E1,-1.396211982E0,7.837092400E0,-1.411765367E-1
5.269562021E1,-6.056832075E-1,6.097809315E0,-2.841476910E-2
5.272895354E1,-5.985047817E-1,8.395217896E0,-9.508479238E-1
5.276228688E1,-1.516152263E0,6.914659023E0,3.451646566E-1
5.279562021E1,2.671287298E0,1.044347477E1,-8.093722463E-1
5.282895354E1,2.671287298E0,1.044347477E1,-8.093722463E-1
5.286228688E1,2.232802629E0,1.042642593E1,-1.149452209E0
5.289562021E1,2.207378894E-1,9.497113228E0,-6.681957245E-1
5.292895354E1,2.207378894E-1,9.497113228E0,-6.681957245E-1
5.296228687E1,5.009972453E-1,1.022303581E1,-7.184450030E-1
5.299562021E1,-5.458626747E-1,8.927022934E0,2.542374134E-1
5.302895354E1,5.536393523E-1,9.760622978E0,-4.357928336E-1
5.306228687E1,-9.541380405E-2,9.573683739E0,-2.201396823E-1
5.309562021E1,2.566302419E-1,9.279067039E0,-3.684946895E-1
5.312895354E1,1.776670814E-1,8.900702477E0,-2.656033039E-1
5.316228687E1,8.051848412E-1,1.008873844E1,-1.130309582E0
5.319562021E1,1.049551845E0,8.673085213E0,-9.317052960E-1
5.322895354E1,-1.938186288E-1,9.554540634E0,-2.895315289E-1
5.326228687E1,-1.938186288E-1,9.554540634E0,-2.895315289E-1
5.329562020E1,2.015953064E-1,9.365208626E0,-4.668995142E-1
5.332895354E1,8.673982024E-1,9.846764565E0,-9.460622668E-1
5.336228687E1,8.673982024E-1,9.846764565E0,-9.460622668E-1
5.339562020E1,4.100699723E-1,9.037093163E0,-1.962114573E-1
5.342895354E1,5.799604058E-1,9.058628082E0,-1.938186288E-1
5.346228687E1,4.842474759E-1,9.128319740E0,1.944168471E-2
5.349562020E1,1.200299621E0,9.492327690E0,-2.775674164E-1
5.352895354E1,-1.698904037E-1,8.524430275E0,3.140579537E-2
5.356228687E1,-4.046861231E-1,9.291030884E0,-2.727817893E-1
5.359562020E1,2.829512656E-1,8.608478546E0,-6.658028960E-1
5.362895353E1,-4.190430641E-1,8.888737679E0,-5.650052428E-1
5.366228687E1,8.410771489E-1,1.007438183E1,-4.310071766E-1
5.369562020E1,8.410771489E-1,1.007438183E1,-4.310071766E-1
5.372895353E1,-2.009970993E-1,9.794121742E0,-3.876372576E-1
5.376228687E1,9.370891452E-1,9.746265411E0,-3.086741269E-1
5.379562020E1,9.370891452E-1,9.746265411E0,-3.086741269E-1
5.382895353E1,1.250848055E0,9.293423653E0,-4.740779996E-1
5.386228686E1,4.866403043E-1,8.292027473E0,-2.751746178E-1
5.389562020E1,2.685943544E-1,8.469395638E0,-6.439684033E-1
5.392895353E1,4.100699723E-1,8.486145973E0,-1.025922745E-1
5.396228686E1,8.602197170E-1,8.728119850E0,-2.153540403E-1
5.399562020E1,3.499503136E-1,8.694620132E0,-9.780662507E-2
5.402895353E1,7.238288522E-1,9.104391098E0,-1.193420291E-1
5.406228686E1,8.404789865E-2,9.207282066E0,-4.037888348E-2
5.409562020E1,1.229312658E0,8.950951576E0,-5.482555032E-1
5.412895353E1,2.279163599E-1,9.279067039E0,-2.560320199E-1
5.416228686E1,1.794616938E0,9.231210709E0,-7.926225066E-1
5.419562020E1,4.100699723E-1,9.418149948E0,-7.663014531E-1
5.422895353E1,4.100699723E-1,9.418149948E0,-7.663014531E-1
5.426228686E1,-1.173380375E0,1.044108200E1,-1.651047617E-1
5.429562019E1,-3.972085714E-1,1.000738239E1,4.097708762E-1
5.432895353E1,1.593320727E0,8.665905952E0,-3.397808075E-1
5.436228686E1,4.531407952E-1,8.613264084E0,-1.051346421E0
5.439562019E1,1.418345571E0,9.401400566E0,-1.283749342E0
5.442895353E1,-1.087238789E0,8.229814529E0,-3.326023519E-1
5.446228686E1,1.313061476E0,8.390432358E0,-4.357928336E-1
5.449562019E1,1.118943691E0,8.804690361E0,-2.917448997E0
5.452895353E1,-2.656033039E-1,1.009113121E1,-9.317052960E-1
5.456228686E1,-2.656033039E-1,1.009113121E1,-9.317052960E-1
5.456228686E1,-1.770688742E-1,8.979664803E0,-3.852444589E-1
5.462895352E1,1.765903115E0,1.310698509E1,-2.751746178E-1
5.466228686E1,1.765903115E0,1.310698509E1,-2.751746178E-1
5.469562019E1,1.892722726E0,1.136082268E1,-5.434698462E-1
5.472895352E1,-3.900300860E-1,1.218485069E1,-2.560320199E-1
5.476228686E1,1.308275819E0,8.730512619E0,3.547359705E-1
5.479562019E1,-5.952146277E-2,9.853942871E0,-1.049850956E-1
5.482895352E1,2.101197481E0,8.342576027E0,-5.793621540E-1
5.486228686E1,-2.895315289E-1,7.001100063E0,-1.132702470E0
5.489562019E1,1.904686809E0,8.869595528E0,-5.195416212E-1
5.492895352E1,-4.429712892E-1,8.359326363E0,-5.985047817E-1
5.496228685E1,2.805584669E-1,1.004806042E1,2.189731836E0
5.499562019E1,2.805584669E-1,1.004806042E1,2.189731836E0
5.502895352E1,3.906283081E-1,9.707980156E0,2.662015259E-1
5.506228685E1,7.908278704E-1,6.718447685E0,9.601201117E-2
5.509562019E1,7.908278704E-1,6.718447685E0,9.601201117E-2
5.512895352E1,1.476072431E0,8.687441826E0,-1.480259895E0
5.516228685E1,2.098804474E0,1.367737389E1,-1.424925923E0
5.519562018E1,8.404789865E-2,1.050090218E1,1.111765265E0
5.522895352E1,6.684948206E-1,1.015095139E1,-2.703889608E-1
5.526228685E1,-2.991028428E-1,1.054397297E1,-2.895315289E-1
5.529562018E1,1.344168067E0,8.414361000E0,1.007976532E-1
5.532895352E1,-8.380861282E-1,5.350351334E0,5.273182988E-1
5.536228685E1,1.990828395E0,9.964311600E0,2.662015259E-1
5.539562018E1,2.599502802E0,9.580862045E0,-1.017846942E0
5.542895352E1,2.599502802E0,9.580862045E0,-1.017846942E0
5.546228685E1,1.368096352E0,8.356932640E0,-7.040880919E-1
5.549562018E1,-1.882553220E0,6.009274960E0,1.344168067E0
5.552895352E1,-1.882553220E0,6.009274960E0,1.344168067E0
5.556228685E1,4.435695112E-1,1.168175983E1,-3.637090325E-1
5.559562018E1,4.244269133E-1,1.017757225E1,6.254240274E-1
5.562895351E1,2.836691141E0,1.061575794E1,-5.817549825E-1
5.566228685E1,-3.027518749E0,6.572186470E0,5.416752100E-1
5.569562018E1,1.868794441E0,6.718447685E0,8.338986635E-1
5.572895351E1,3.786641955E-1,1.164347458E1,8.769695163E-1
5.576228685E1,-7.543373108E-1,7.144669533E0,1.341775298E0
5.579562018E1,6.493522525E-1,8.680263519E0,-3.320041299E-2
5.582895351E1,5.632106066E-1,6.581758022E0,-9.780662507E-2
5.586228685E1,1.704886183E-2,7.259823799E0,-2.213061810E0
5.589562018E1,8.219345808E-1,1.143500042E1,1.638784409E0
5.592895351E1,1.715354681E0,9.403793335E0,2.446661144E-1
5.596228684E1,1.715354681E0,9.403793335E0,2.446661144E-1
5.599562018E1,2.949153900E0,7.726723194E0,-2.153241158E0
5.602895351E1,-4.932205677E-1,1.058704376E1,-4.142574072E-1
5.606228684E1,1.672283888E0,1.458275890E1,4.914259613E-1
5.609562018E1,8.434699774E-1,1.161954689E1,-3.876372576E-1
5.612895351E1,6.951149702E-1,7.101598740E0,-6.658028960E-1
5.616228684E1,3.882354796E-1,1.048415279E1,3.212364316E-1
5.619562018E1,-5.458626747E-1,1.129143143E1,1.037587762E0
5.622895351E1,1.598106384E0,1.005763149E1,4.579264224E-1
5.626228684E1,2.135594189E-1,6.612864494E0,-4.884349108E-1
5.629562017E1,3.305983543E0,1.115713406E1,-2.122134686E0
5.632895351E1,-4.668995142E-1,7.436892986E0,4.938187599E-1
5.636228684E1,1.511964798E0,1.017517948E1,8.291130662E-1
5.639562017E1,1.511964798E0,1.017517948E1,8.291130662E-1
5.642895351E1,8.745766878E-1,1.170329571E1,8.219345808E-1
5.646228684E1,1.942971945E0,7.738687515E0,-8.584251255E-2
5.649562017E1,-1.963909149E0,6.818946362E0,-4.190430641E-1
5.652895351E1,2.300100803E0,9.053842545E0,-5.362913609E-1
5.656228684E1,8.338986635E-1,1.003131104E1,-1.698904037E-1
5.659562017E1,1.751546144E0,1.017278671E1,-4.645066857E-1
5.662895350E1,-6.080760360E-1,5.199603558E0,3.068794906E-1
5.666228684E1,7.238288522E-1,9.312566757E0,4.435695112E-1
5.669562017E1,-9.272187948E-3,1.083858967E1,-5.051847100E-1
5.672895350E1,1.035194874E0,7.156633377E0,1.703390598E0
5.676228684E1,1.368096352E0,9.885049820E0,-7.758727670E-1
5.679562017E1,-2.512463629E-1,9.020342827E0,9.658030272E-1
5.682895350E1,-2.512463629E-1,9.020342827E0,9.658030272E-1
5.686228684E1,1.127617657E-1,7.542476177E0,8.338986635E-1
5.689562017E1,1.947757602E0,1.178255749E1,6.086742878E-1
5.692895350E1,1.432702541E0,1.014616585E1,8.961120844E-1
5.696228683E1,1.277169108E0,1.196680546E1,5.297111273E-1
5.699562017E1,-3.708875179E-1,9.954740524E0,1.502393484E0
5.702895350E1,-5.338985324E-1,8.685049057E0,1.403988719E0
5.706228683E1,-1.003489971E0,6.579364777E0,-2.225325108E-1
5.709562017E1,2.327020019E-1,9.554540634E0,-6.415755749E-1
5.712895350E1,4.196412563E-1,1.343779278E1,1.175474152E-1
5.716228683E1,7.118647099E-1,9.430113792E0,1.145264745E0
5.719562016E1,1.205384374E0,7.999804497E0,-1.523330688E0
5.722895350E1,-9.771689177E-1,8.886344910E0,2.944368362E0
5.726228683E1,-9.771689177E-1,8.886344910E0,2.944368362E0
5.729562016E1,-2.459821701E0,5.879763603E0,1.272383451E0
5.732895350E1,-6.583253145E-1,6.713662148E0,-9.780662507E-2
5.736228683E1,-6.583253145E-1,6.713662148E0,-9.780662507E-2
5.739562016E1,-2.579761982E0,7.932805061E0,2.906083107E0
5.742895350E1,2.762214661E0,1.288445282E1,-1.702792406E0
5.746228683E1,-4.692923427E-1,1.292513084E1,-1.106381416E0
5.749562016E1,-1.408176184E0,1.030917740E1,1.447059512E0
5.752895350E1,-4.908277392E-1,1.120020485E1,2.429313183E0
5.756228683E1,9.296116233E-1,6.011667728E0,1.111765265E0
5.759562016E1,8.003991842E-1,1.002891827E1,-3.887738705E0
5.762895349E1,7.208377868E-2,9.487542152E0,4.674977362E-1
5.766228683E1,-1.197308660E0,9.655338287E0,-1.555334777E-1
5.769562016E1,1.861616015E0,8.613264084E0,6.373881102E-1
5.772895349E1,-2.486142635E0,6.795018196E0,5.608177781E-1
5.776228683E1,1.617249012E0,7.324429989E0,-1.025025368E0
5.779562016E1,1.617249012E0,7.324429989E0,-1.025025368E0
5.782895349E1,2.614158690E-1,9.178568840E0,2.183450572E-2
5.786228683E1,2.973082066E-1,6.438188553E0,-4.357928336E-1
5.789562016E1,-1.427318692E0,8.160422325E0,2.853440940E-1
5.792895349E1,3.690928817E-1,8.670691490E0,-8.213363886E-1
5.796228682E1,-7.328019142E-1,7.683652401E0,2.925225794E-1
5.799562016E1,1.360917926E0,1.229492092E1,-9.062815458E-2
5.802895349E1,-1.123131156E0,8.718548775E0,4.148556292E-1
5.806228682E1,2.453241348E0,9.154640198E0,-1.914258152E-1
5.809562016E1,3.602992773E0,1.402941799E1,-1.252642632E0
5.812895349E1,3.602992773E0,1.402941799E1,-1.252642632E0
5.816228682E1,3.121736288E0,1.321256828E1,2.685943544E-1
5.819562016E1,-5.793621540E-1,9.947562218E0,6.807580590E-1
5.822895349E1,-5.793621540E-1,9.947562218E0,6.807580590E-1
5.826228682E1,5.536393523E-1,7.310073376E0,-6.367899179E-1
5.829562015E1,1.715354681E0,4.957629204E0,-5.195416212E-1
5.832895349E1,1.344168067E0,9.173783302E0,-7.304090858E-1
5.836228682E1,2.000399828E0,8.419146538E0,9.128618240E-1
5.839562015E1,2.621038198E0,1.132014465E1,-3.798605874E-2
5.842895349E1,-1.103988528E0,8.397610664E0,6.969095767E-2
5.846228682E1,1.916650891E0,9.940383911E0,-1.118345499E0
5.849562015E1,6.278168559E-1,1.070698357E1,-8.548358679E-1
5.852895348E1,1.787438512E0,1.025892830E1,5.533402413E-2
5.856228682E1,1.787438512E0,1.025892830E1,5.533402413E-2
5.859562015E1,2.359921217E0,1.027328491E1,1.199402362E-1
5.862895348E1,7.836494446E-1,9.645767212E0,5.512465239E-1
5.866228682E1,7.836494446E-1,9.645767212E0,5.512465239E-1
5.869562015E1,8.644071966E-2,5.855835438E0,1.418345571E0
5.872895348E1,2.477169752E0,9.224032402E0,-5.243272781E-1
5.876228682E1,1.403988719E0,1.030439186E1,-4.860421121E-1
5.879562015E1,-3.062812984E-1,8.031209946E0,1.260419369E0
5.882895348E1,2.702394009E0,9.549755096E0,-4.755735025E-2
5.886228682E1,-1.288534999E0,7.872984886E0,2.077269077E0
5.889562015E1,2.170589209E0,1.090319538E1,-4.932205677E-1
5.892895348E1,1.765903115E0,1.135364437E1,1.752742529E-1
5.896228681E1,1.557428479E0,1.032592678E1,4.722833633E-1
5.899562015E1,1.557428479E0,1.032592678E1,4.722833633E-1
5.902895348E1,1.844866276E0,1.000020409E1,6.637091637E-1
5.906228681E1,2.460419893E0,8.632407188E0,1.103689447E-1
5.909562015E1,2.460419893E0,8.632407188E0,1.103689447E-1
5.912895348E1,-4.286143482E-1,7.470392227E0,2.422732860E-2
5.916228681E1,-1.507478207E-1,7.702795029E0,1.648355722E0
5.919562015E1,1.500000715E0,8.402397156E0,2.973082066E-1
5.922895348E1,1.775474429E0,7.501798153E0,-5.051847100E-1
5.926228681E1,1.537388563E-1,5.309673309E0,5.512465239E-1
5.929562014E1,9.873384237E-1,1.134407330E1,8.267202377E-1
5.932895348E1,1.535893083E0,7.132705212E0,-3.080759197E-2
5.936228681E1,4.890331328E-1,9.442078590E0,-1.770688742E-1
5.939562014E1,3.227020502E0,1.210828114E1,-1.169492081E-1
5.942895348E1,3.227020502E0,1.210828114E1,-1.169492081E-1
5.946228681E1,5.337490082E0,1.200269794E1,-8.931210637E-1
5.949562014E1,-8.883354068E-1,6.845267296E0,2.638086975E-1
5.952895348E1,-8.883354068E-1,6.845267296E0,2.638086975E-1
5.956228681E1,7.046862841E-1,9.679266930E0,4.674977362E-1
5.959562014E1,-5.721837282E-1,7.262216568E0,2.446661144E-1
5.962895347E1,3.993621111E0,1.031635571E1,-1.607079506E0
5.966228681E1,2.230409861E0,1.302562904E1,-8.955138922E-1
5.969562014E1,2.841476917E0,9.638588905E0,-1.348355532E0
5.972895347E1,-3.708875179E-1,6.943373203E0,6.927221417E-1
5.976228681E1,3.040081263E0,1.025892830E1,5.294119939E-2
5.979562014E1,2.518445849E-1,1.261855030E1,-6.511468887E-1
5.982895347E1,8.769695163E-1,9.442078590E0,1.248455167E0
5.986228681E1,8.769695163E-1,9.442078590E0,1.248455167E0
5.989562014E1,2.676073074E0,8.627620697E0,-1.453639746E0
5.992895347E1,1.164407372E0,7.959126472E0,-6.921239495E-1
5.996228680E1,1.164407372E0,7.959126472E0,-6.921239495E-1
5.999562014E1,2.002792597E0,6.287141323E0,3.523431420E-1
6.002895347E1,7.166503668E-1,1.316710472E1,-1.068096161E0
6.006228680E1,1.813759565E0,9.178568840E0,-1.223928809E0
6.009562014E1,6.589235067E-1,1.153819084E1,3.092723191E-1
6.012895347E1,-7.256234884E-1,6.687041759E0,2.094018936E0
6.016228680E1,2.470589429E-1,8.804690361E0,1.114158034E0
6.019562014E1,3.236292601E-1,1.097288609E1,-5.386841893E-1
6.022895347E1,1.197906852E0,8.548358917E0,-8.261220455E-1
6.026228680E1,7.190431952E-1,9.216854095E0,-8.476574421E-1
6.029562013E1,7.190431952E-1,9.216854095E0,-8.476574421E-1
6.032895347E1,2.534597397E0,9.533005714E0,-1.097707376E-1
6.036228680E1,-1.914258152E-1,7.786843300E0,-1.223928809E0
6.039562013E1,-1.914258152E-1,7.786843300E0,-1.223928809E0
6.042895347E1,-1.815554142E0,1.012941647E1,5.488536954E-1
6.046228680E1,6.326025128E-1,9.556933403E0,8.883354068E-2
6.049562013E1,4.316053987E-1,8.907880783E0,5.967101455E-1
6.052895346E1,9.466604590E-1,8.294420242E0,-1.722832322E-1
6.056228680E1,3.786641955E-1,8.423932076E0,-9.819545746E-1
6.059562013E1,2.752643347E0,1.077876854E1,-1.271785259E0
6.062895346E1,-1.489831209E0,8.251349449E0,-1.531406492E-1
6.066228680E1,1.782652855E0,1.012941647E1,-4.238287210E-1
6.069562013E1,4.698905349E-1,9.235996246E0,5.772684515E-2
6.072895346E1,1.710569143E0,9.504291534E0,3.379862010E-2
6.076228680E1,9.032905698E-1,8.067102432E0,-5.769693851E-1
6.079562013E1,3.068794906E-1,6.818946362E0,-1.058524966E0
6.082895346E1,1.569392562E0,8.867202759E0,-1.525723577E0
6.086228680E1,4.986044168E-1,9.715159416E0,-1.890329868E-1
6.089562013E1,2.031805515E0,1.323888969E1,-3.320041299E-2
6.092895346E1,9.176474810E-1,8.912666321E0,8.937192559E-1
6.096228679E1,1.212562919E0,1.029482079E1,-8.787640929E-1
6.099562013E1,1.612463355E0,9.753444672E0,-7.686942816E-1
6.102895346E1,1.140479088E0,8.529216766E0,-8.763712645E-1
6.106228679E1,1.816152334E0,9.870692253E0,-1.794617027E-1
6.109562013E1,8.315058947E-1,8.160422325E0,7.686942816E-2
6.112895346E1,8.889335990E-1,8.304290771E0,-2.033899277E-1
6.116228679E1,1.296311617E0,8.627620697E0,-3.559323773E-2
6.119562013E1,5.440680385E-1,7.861020565E0,-2.775674164E-1
6.122895346E1,8.291130662E-1,9.037093163E0,-4.486542661E-3
6.126228679E1,1.241276741E0,9.396614075E0,-5.721837282E-1
6.129562012E1,1.430309772E0,9.406186104E0,-1.794617027E-1
6.132895346E1,1.085444212E0,9.382257462E0,-2.123630047E-2
6.136228679E1,1.564606905E0,9.406186104E0,-6.391827464E-1
6.139562012E1,1.313061476E0,9.379864693E0,-7.387840003E-2
6.142895346E1,1.004088163E0,9.243174553E0,-1.001994461E-1
6.146228679E1,7.836494446E-1,9.540184021E0,-2.679961324E-1
6.149562012E1,1.195513964E0,9.774979591E0,-2.823530734E-1
6.152895346E1,7.573283911E-1,9.200103760E0,-3.421736360E-1
6.156228679E1,7.621139884E-1,8.787940025E0,-3.541377485E-1
6.159562012E1,1.063908815E0,9.530612946E0,-5.865406394E-1
6.162895345E1,-3.924229145E-1,6.476473808E0,7.956135273E-1
6.166228679E1,1.761117458E0,8.694620132E0,-1.324427366E0
6.169562012E1,1.761117458E0,8.694620132E0,-1.324427366E0
6.172895345E1,-3.804588020E-1,7.302894592E0,1.332203984E0
6.176228679E1,2.788535595E0,1.160519028E1,-2.344966233E-1
6.179562012E1,4.100699723E-1,1.061815071E1,1.195513964E0
6.182895345E1,2.122732878E0,1.208913803E1,-8.165507317E-1
6.186228678E1,1.200299621E0,1.050808048E1,7.208377868E-2
6.189562012E1,4.962115884E-1,1.027807045E1,1.561316848E-1
6.192895345E1,5.703890920E-1,1.039053345E1,-3.182454109E-1
6.196228678E1,4.579264224E-1,8.718548775E0,-2.368894368E-1
6.199562012E1,1.018445134E0,8.325826645E0,-3.876372576E-1
6.202895345E1,2.183450572E-2,7.209275723E0,-7.256234884E-1
6.206228678E1,-1.571187139E0,6.718447685E0,-4.908277392E-1
6.209562012E1,2.194517374E0,8.953344345E0,-5.075774789E-1
6.212895345E1,2.194517374E0,8.953344345E0,-5.075774789E-1
6.216228678E1,7.668996453E-1,9.418149948E0,-7.088736892E-1
6.219562012E1,9.658030272E-1,9.487542152E0,-1.365105271E0
6.222895345E1,9.658030272E-1,9.487542152E0,-1.365105271E0
6.226228678E1,1.543071508E0,9.923633575E0,-2.081755698E-1
6.229562011E1,1.320239902E0,1.012702370E1,-7.160521746E-1
6.232895345E1,-8.261220455E-1,9.372686386E0,-7.567301393E-1
6.236228678E1,-8.105687052E-2,9.046664238E0,-2.602194622E-2
6.239562011E1,-6.032904387E-1,8.828618050E0,-8.859425783E-1
6.242895345E1,-3.254238665E-1,9.080163956E0,-8.548358679E-1
6.246228678E1,-2.823530734E-1,8.378468513E0,-5.195416212E-1
6.249562011E1,-2.656033039E-1,7.784450054E0,-3.469592929E-1
6.252895345E1,2.163410664E0,9.705587387E0,-5.427819252E0
6.256228678E1,2.163410664E0,9.705587387E0,-5.427819252E0
6.259562011E1,4.001995921E-1,1.108534908E1,-2.943171859E-1
6.262895344E1,4.531407952E-1,9.997811317E0,-7.866404206E-2
6.266228678E1,4.531407952E-1,9.997811317E0,-7.866404206E-2
6.269562011E1,8.985049129E-1,8.922237396E0,-8.356932998E-1
6.272895344E1,9.562317729E-1,1.158604717E1,-3.278166950E-1
6.276228678E1,-4.573282301E-1,1.067557812E1,-1.528116345E0
6.279562011E1,1.059123158E0,1.042642593E1,6.086742878E-1
6.282895344E1,1.944168471E-2,8.117351532E0,-3.421736360E-1
6.286228678E1,-3.493520916E-1,7.465606689E0,7.118647099E-1
6.289562011E1,6.589235067E-1,1.018475056E1,-1.839482427E0
6.292895344E1,2.590230405E-1,1.060379314E1,-2.632105052E-1
6.296228677E1,-4.836492836E-1,5.324030399E0,2.374876440E-1
6.299562011E1,3.667000830E-1,1.045783138E1,-2.148455620E0
6.302895344E1,-1.866401732E-1,9.425328255E0,1.342971772E-1
6.306228677E1,2.925225794E-1,1.316231918E1,6.254240274E-1
6.309562011E1,2.925225794E-1,1.316231918E1,6.254240274E-1
6.312895344E1,-2.344966233E-1,9.573683739E0,-4.037888348E-2
6.316228677E1,5.608177781E-1,9.748658180E0,-1.465902925E0
6.319562010E1,-1.159023523E0,7.616653442E0,4.815555736E-2
6.322895344E1,-2.737688303E0,1.718943954E0,1.514357686E0
6.326228677E1,-7.160521746E-1,7.252645493E0,4.576273263E-2
6.329562010E1,5.560321808E-1,1.300648689E1,-6.586244106E-1
6.332895344E1,-4.486542661E-3,7.990232944E0,-3.014956415E-1
6.336228677E1,-7.866404206E-2,7.245467186E0,-3.158525825E-1
6.339562010E1,1.645962834E0,1.355025578E1,-1.599901080E0
6.342895344E1,1.645962834E0,1.355025578E1,-1.599901080E0
6.346228677E1,5.009972453E-1,1.047218800E1,1.164407372E0
6.349562010E1,-6.879365072E-3,9.894620895E0,-8.584251255E-2
6.352895344E1,-6.879365072E-3,9.894620895E0,-8.584251255E-2
6.356228677E1,1.492822170E0,1.098963642E1,-1.719542146E0
6.359562010E1,-8.021938205E-1,1.000020409E1,-6.825526357E-1
6.362895343E1,2.135594189E-1,7.702795029E0,-1.175773263E0
6.366228677E1,-7.387840003E-2,8.701798439E0,-5.769693851E-1
6.369562010E1,-7.304090858E-1,7.540083408E0,1.537388563E-1
6.372895343E1,1.087836981E0,1.034985542E1,1.438684613E-1
6.376228677E1,-2.043171406E0,7.518548012E0,5.297111273E-1
6.379562010E1,3.284149170E-1,8.196314812E0,-2.153540403E-1
6.382895343E1,5.533402413E-2,8.912666321E0,-5.937191248E-1
6.386228677E1,5.533402413E-2,8.912666321E0,-5.937191248E-1
6.389562010E1,-6.032904387E-1,9.418149948E0,-4.310071766E-1
6.392895343E1,-3.110669553E-1,9.700801849E0,-6.945167780E-1
6.396228676E1,-3.110669553E-1,9.700801849E0,-6.945167780E-1
6.399562010E1,-7.615157962E-1,8.718548775E0,-7.375875711E-1
6.402895343E1,-6.535396576E-1,8.891130447E0,-9.508479238E-1
6.406228676E1,8.404789865E-2,9.846764565E0,-8.691928387E-1
6.409562010E1,-1.003489971E0,8.021339417E0,-2.416750938E-1
6.412895343E1,2.374876440E-1,9.171390533E0,-5.147559643E-1
6.416228676E1,9.361918271E-2,9.133105278E0,-5.315057039E-1
6.419562010E1,-2.093719784E-3,8.771190643E0,-3.903291821E-1
6.422895343E1,3.068794906E-1,9.274281502E0,-5.482555032E-1
6.426228676E1,-5.051847100E-1,8.287241936E0,-3.014956415E-1
6.429562009E1,-5.051847100E-1,8.287241936E0,-3.014956415E-1
6.432895343E1,-4.381856322E-1,9.631111145E0,-3.469592929E-1
6.436228676E1,1.704886109E-1,9.477970123E0,-3.780659735E-1
6.439562009E1,2.925225794E-1,8.615656853E0,-3.110669553E-1
6.442895343E1,5.533402413E-2,8.517251968E0,-1.003489971E0
6.446228676E1,3.571287692E-1,1.066839981E1,-7.591229677E-1
6.449562009E1,7.884350419E-1,9.954740524E0,-7.399803996E-1
6.452895342E1,-4.046861231E-1,8.855237961E0,-4.118646085E-1
6.456228676E1,-4.037888348E-2,9.602396965E0,-4.070789516E-1
6.459562009E1,4.746761918E-1,1.039053345E1,-7.064808607E-1
6.462895342E1,-2.512463629E-1,9.662516594E0,-3.326023519E-1
6.466228676E1,2.470589429E-1,9.870692253E0,-2.440679073E-1
6.469562009E1,-5.712864175E-2,7.597510815E0,-9.843474030E-1
6.472895342E1,-5.712864175E-2,7.597510815E0,-9.843474030E-1
6.476228676E1,-1.199701428E0,8.138887405E0,2.159522474E-1
6.479562009E1,1.686640859E0,9.832406998E0,-1.080060363E0
6.482895342E1,1.686640859E0,9.832406998E0,-1.080060363E0
6.486228676E1,3.523431420E-1,1.094387341E1,-9.269196987E-1
6.489562009E1,-4.429712892E-1,8.047960281E0,-3.903291821E-1
6.492895342E1,1.728814393E-1,8.248956680E0,-6.559324861E-1
6.496228675E1,-8.596215248E-1,8.181958199E0,-1.535294771E0
6.499562009E1,-1.674078584E0,8.143672943E0,-1.113559842E0
6.502895342E1,-2.679961324E-1,9.362815857E0,-2.330609322E0
6.506228675E1,1.353739381E0,9.104391098E0,-1.269392371E0
6.509562009E1,1.776670814E-1,1.161236858E1,2.949153781E-1
6.512895342E1,2.237588167E0,9.942776680E0,-2.768795013E0
6.516228675E1,2.237588167E0,9.942776680E0,-2.768795013E0
6.519562008E1,-5.530411601E-1,8.771190643E0,4.363910258E-1
6.522895342E1,1.504786372E0,1.028764153E1,3.164508045E-1
6.526228675E1,1.504786372E0,1.028764153E1,3.164508045E-1
6.529562008E1,-1.532902002E0,6.763911247E0,1.031904742E-1
6.532895342E1,2.386242390E0,1.111167049E1,-4.860421121E-1
6.536228675E1,-4.070789516E-1,8.594121933E0,-3.014956415E-1
6.539562008E1,5.392823815E-1,8.445467949E0,-6.610172391E-1
6.542895342E1,6.397809386E-1,9.973882675E0,-8.189435601E-1
6.546228675E1,3.810569942E-1,6.399604321E0,-7.591229677E-1
6.549562008E1,1.315454245E0,8.340183258E0,-5.195416212E-1
6.552895342E1,6.445665956E-1,1.007916737E1,-6.272186637E-1
6.556228675E1,-3.798605874E-2,8.917451859E0,5.772684515E-2
6.559562008E1,2.276172638E0,1.075962639E1,-5.793621540E-1
6.562895341E1,-2.110170364E0,6.948158741E0,-1.073779166E-1
6.566228675E1,8.913264275E-1,1.126271725E1,-7.591229677E-1
6.569562008E1,8.913264275E-1,1.126271725E1,-7.591229677E-1
6.572895341E1,1.087836981E0,1.185912800E1,-3.951148391E-1
6.576228675E1,5.294119939E-2,1.121216869E1,3.667000830E-1
6.579562008E1,-2.225325108E-1,8.361719131E0,-2.682653189E0
6.582895341E1,3.044866920E-1,7.844270706E0,-4.381856322E-1
6.586228674E1,-3.924229145E-1,8.189136505E0,-1.810768485E0
6.589562008E1,2.925225794E-1,8.122137070E0,-1.746162295E0
6.592895341E1,5.084747914E-3,4.181457520E0,-7.663014531E-1
6.596228674E1,1.375274777E0,1.505713558E1,-7.387840003E-2
6.599562008E1,3.571287692E-1,1.094626617E1,-1.056132078E0
6.602895341E1,-2.362912335E-2,1.332742405E1,2.072483540E0
6.606228674E1,2.303091735E-1,9.985847473E0,1.109372377E0
6.609562008E1,-5.123631358E-1,9.537791252E0,-5.937191248E-1
6.612895341E1,-5.123631358E-1,9.537791252E0,-5.937191248E-1
6.616228674E1,3.037688255E0,6.421139717E0,-1.412961721E0
6.619562008E1,-2.744866610E0,6.431009769E0,9.969097376E-1
6.622895341E1,-3.320041299E-2,1.155972576E1,2.159522474E-1
6.626228674E1,-1.161416292E0,7.623832226E0,8.865407705E-1
6.629562007E1,4.048655987E0,1.238136196E1,-1.762912035E0
6.632895341E1,-9.460622668E-1,1.017517948E1,-1.446461320E0
6.636228674E1,2.082054853E0,1.159561825E1,-1.156630635E0
6.639562007E1,1.140479088E0,1.143739319E1,-3.559323788E0
6.642895341E1,-4.989633560E0,1.972882271E0,6.780661345E-1
6.646228674E1,4.956732273E0,1.322931862E1,-3.825226068E0
6.649562007E1,-3.589234054E-1,1.101117134E1,-4.931906700E0
6.652895341E1,-1.580758452E0,4.226921082E0,-1.597508192E0
6.656228674E1,-1.580758452E0,4.226921082E0,-1.597508192E0
6.659562007E1,1.789831281E0,9.964311600E0,-3.876372576E-1
6.662895340E1,-1.506580949E0,1.193091297E1,4.025924206E-1
6.666228674E1,-6.909275055E-2,1.143739319E1,4.866403043E-1
6.669562007E1,2.470589429E-1,1.153340530E1,-8.428717852E-1
6.672895340E1,-3.684946895E-1,9.317352295E0,3.236292601E-1
6.676228674E1,6.445665956E-1,7.060920715E0,-5.195416212E-1
6.679562007E1,-9.242277741E-1,6.181857109E0,-8.572286963E-1
6.682895340E1,-4.037888348E-2,1.070429230E1,-2.488535494E-1
6.686228674E1,-1.726720691E0,4.351646900E0,2.817249537E0
6.689562007E1,2.216052771E0,9.442078590E0,-2.033600092E0
6.692895340E1,3.762713671E-1,6.881159782E0,-2.110170364E0
6.696228673E1,-1.053739309E0,6.148058891E0,1.008873820E0
6.699562007E1,-1.053739309E0,6.148058891E0,1.008873820E0
6.702895340E1,1.248455167E0,1.177777195E1,5.679962635E-1
6.706228673E1,-1.758126378E0,1.019671440E1,1.854437590E0
6.709562007E1,-1.758126378E0,1.019671440E1,1.854437590E0
6.712895340E1,-7.304090858E-1,9.952347755E0,4.196412563E-1
6.716228673E1,-1.283749342E0,9.384650230E0,-6.909275055E-2
6.719562006E1,2.585145712E0,1.014377308E1,-7.806583643E-1
6.722895340E1,1.011266708E0,1.112841988E1,-1.651047617E-1
6.726228673E1,1.854437590E0,7.592725277E0,-1.190130115E0
6.729562006E1,-1.123131156E0,6.679863453E0,-5.234299600E-2
6.732895340E1,7.740781307E-1,9.360423088E0,3.236292601E-1
6.736228673E1,-1.842473447E-1,9.921240807E0,4.387838542E-1
6.739562006E1,1.669891119E0,1.111406326E1,1.609173268E-1
6.742895340E1,1.669891119E0,1.111406326E1,1.609173268E-1
6.746228673E1,5.084747914E-3,8.740083694E0,-1.405783277E-2
6.749562006E1,6.038886309E-1,1.052483082E1,-1.962114573E-1
6.752895340E1,6.038886309E-1,1.052483082E1,-1.962114573E-1
6.756228673E1,1.147657514E0,1.138714409E1,5.533402413E-2
6.759562006E1,-9.361918569E-1,5.070092201E0,1.031904742E-1
6.762895339E1,7.381857634E-1,9.664909363E0,-1.482652783E0
6.766228673E1,-2.141277075E0,6.960422039E0,-9.302098304E-2
6.769562006E1,4.268197417E-1,9.621540070E0,1.712961912E0
6.772895339E1,2.307279348E0,8.582157135E0,-3.661018610E-1
6.776228673E1,1.473679662E0,1.015813065E1,-4.142574072E-1
6.779562006E1,-8.333004713E-1,6.751947403E0,6.302096844E-1
6.782895339E1,1.092622638E0,1.017757225E1,-1.169492081E-1
6.786228672E1,1.092622638E0,1.017757225E1,-1.169492081E-1
6.789562006E1,3.427718580E-1,1.155254745E1,-6.224330068E-1
6.792895339E1,1.140479088E0,7.537690639E0,-7.782655358E-1
6.796228672E1,-5.123631358E-1,1.065404320E1,-6.008976102E-1
6.799562006E1,2.271087885E0,8.665905952E0,3.379862010E-1
6.802895339E1,6.711867452E-1,8.313861847E0,-1.492223978E0
6.806228672E1,5.105685592E-1,9.058628082E0,-2.823530734E-1
6.809562006E1,-2.847459018E-1,7.058527470E0,-2.823530734E-1
6.812895339E1,1.171585798E0,9.897013664E0,-9.580263495E-1
6.816228672E1,1.295115203E-1,9.454042435E0,5.225326419E-1
6.819562006E1,2.125125647E0,1.054875851E1,-6.296114326E-1
6.822895339E1,2.101197481E0,1.326999664E1,-6.176473498E-1
6.826228672E1,6.469594240E-1,1.135842991E1,1.390828192E-1
6.829562005E1,6.469594240E-1,1.135842991E1,1.390828192E-1
6.832895339E1,1.804188251E0,1.131296635E1,8.003991842E-1
6.836228672E1,1.296311617E0,6.289534092E0,-1.147059321E0
6.839562005E1,1.296311617E0,6.289534092E0,-1.147059321E0
6.842895339E1,-5.626124144E-1,6.909873486E0,7.549355626E-1
6.846228672E1,-2.270489693E0,7.772486210E0,1.866401672E0
6.849562005E1,1.581356645E0,9.719944954E0,-4.836492836E-1
