"Time (s)","Acceleration x (m/s^2)","Acceleration y (m/s^2)","Acceleration z (m/s^2)"
3.017001700E-2,-2.551048040E0,-8.180462122E-1,1.031785107E1
4.986579800E-2,-2.673082113E0,-5.617151260E-1,9.247062683E0
6.956923600E-2,-2.735295296E0,-3.939184248E-1,9.515357971E0
8.930855900E-2,-2.807080030E0,-3.101696372E-1,9.776176453E0
1.089917880E-1,-2.821736097E0,-2.476571500E-1,9.122337341E0
2.123648090E-1,-2.646760941E0,-8.180462122E-1,9.157032967E0
2.320562670E-1,-2.510071039E0,-7.986045480E-1,9.152247429E0
2.517549650E-1,-2.444268227E0,-8.371888399E-1,9.571589470E0
2.714614230E-1,-2.445464849E0,-9.352945685E-1,9.811170578E0
2.911637150E-1,-2.513660192E0,-9.113663435E-1,9.482755661E0
3.108668400E-1,-2.504088879E0,-8.132606149E-1,9.752247810E0
3.306061110E-1,-2.584547520E0,-7.316055298E-1,9.879366875E0
3.502627250E-1,-2.560619354E0,-1.019043326E0,9.127122879E0
3.699872050E-1,-2.532802820E0,-8.395816684E-1,9.510273933E0
3.897139750E-1,-2.625225544E0,-5.171487927E-1,9.485149384E0
4.093869960E-1,-2.637189627E0,-6.418746710E-1,9.281759262E0
4.290992880E-1,-2.730509758E0,-5.916253924E-1,9.444471359E0
4.487961110E-1,-2.944966555E0,-4.728815854E-1,9.865009308E0
4.685103820E-1,-2.764009237E0,-2.934198678E-1,9.711569786E0
4.882289750E-1,-2.762812853E0,-1.818545163E-1,9.533304214E0
5.079053820E-1,-2.679064035E0,-1.998006850E-1,9.470791817E0
5.276093920E-1,-2.604886532E0,-2.596212626E-1,9.577571869E0
5.473110590E-1,-2.475374937E0,-3.711866140E-1,9.742676735E0
5.670168400E-1,-2.451446772E0,-4.393820465E-1,9.536893845E0
5.867341320E-1,-2.447857618E0,-5.147559643E-1,9.491130829E0
6.064237670E-1,-2.457428932E0,-5.350949764E-1,9.387042999E0
6.261353300E-1,-2.440679073E0,-4.357928336E-1,9.272188187E0
6.458302780E-1,-2.366501570E0,-5.988038778E-1,8.727222443E0
6.655313190E-1,-2.612065077E0,-6.071787477E-1,9.093623161E0
6.852491320E-1,-2.533999205E0,-2.153540403E-1,9.668498993E0
7.049612150E-1,-2.681456804E0,-4.226323068E-1,9.832706451E0
7.246485590E-1,-2.674278498E0,-8.359923959E-1,9.654142380E0
7.443507980E-1,-2.531606436E0,-7.232306600E-1,9.930811882E0
7.640913710E-1,-2.499303341E0,-8.973085135E-2,9.845867157E0
7.837634030E-1,-2.437089920E0,-6.221338734E-2,9.403793335E0
8.034737150E-1,-2.588136673E0,-2.632104978E-2,9.298508644E0
8.231833500E-1,-2.683849812E0,-2.093719840E-1,9.597910881E0
8.428713710E-1,-2.762812853E0,-3.687937856E-1,9.620642662E0
8.625740280E-1,-2.927020311E0,-2.632105052E-1,9.527322769E0
8.822900170E-1,-2.843271494E0,-5.982056633E-2,9.369096756E0
9.020159030E-1,-2.809472799E0,5.054837838E-2,9.427721024E0
9.217049650E-1,-2.752045155E0,1.704886183E-2,9.493523598E0
9.413891840E-1,-2.781955481E0,1.944168471E-2,9.382257462E0
9.611258500E-1,-2.682653189E0,-8.494520187E-2,9.446864128E0
9.807971530E-1,-2.670689106E0,-9.810572863E-2,9.499505997E0
1.000525850E0,-2.640778780E0,-9.690931439E-2,9.462417603E0
1.020228246E0,-2.631207705E0,-1.615155339E-1,9.419346809E0
1.039919600E0,-2.614457846E0,-2.129612118E-1,9.494720459E0
1.059609496E0,-2.626421928E0,-1.950150430E-1,9.407382011E0
1.079315017E0,-2.467000246E0,-1.579262912E-1,9.694820404E0
1.099017257E0,-2.516052961E0,-1.543370634E-1,9.379864693E0
1.118746944E0,-2.665903568E0,-1.196411322E-3,9.703194618E0
1.138444028E0,-2.549851656E0,1.465603895E-2,9.422935486E0
1.158134184E0,-2.577368975E0,2.901297435E-2,9.471988678E0
1.177838611E0,-2.655135870E0,8.285148442E-2,9.521340370E0
1.197538767E0,-2.627618313E0,1.345962752E-2,9.436096191E0
1.217248298E0,-2.662314177E0,2.991028305E-4,9.424132347E0
1.236949392E0,-2.726920605E0,3.858426586E-2,9.505488396E0
1.256671371E0,-2.695813894E0,-1.052841991E-1,9.504291534E0
1.276353142E0,-2.663510799E0,-1.280160099E-1,9.517750740E0
1.296057882E0,-2.582154751E0,-1.674975902E-1,9.509077072E0
1.315791215E0,-2.542673111E0,-2.910270393E-1,9.551250458E0
1.335467778E0,-2.518445730E0,-2.273181528E-1,9.497113228E0
1.355166059E0,-2.520838737E0,-3.005983531E-1,9.565608025E0
1.374883090E0,-2.499303341E0,-3.915255964E-1,9.488738060E0
1.394578403E0,-2.481357098E0,-6.933203340E-1,9.208478928E0
1.414290642E0,-2.451446772E0,-3.903291821E-1,9.686445236E0
1.433988715E0,-2.487339020E0,-2.850449979E-1,9.317651749E0
1.453687673E0,-2.533999205E0,-2.742772996E-1,8.065905571E0
1.473406944E0,-2.649153709E0,-4.944169819E-1,1.038843918E1
1.493127725E0,-2.390429735E0,-2.285145670E-1,9.376275063E0
1.512801580E0,-2.167598248E0,3.140579760E-1,7.736593723E0
1.532509548E0,-2.341377020E0,8.291130662E-1,9.663713455E0
1.552208715E0,-2.680260420E0,1.257727385E0,1.052961636E1
1.571908871E0,-3.245564699E0,1.569093466E0,1.050329494E1
1.591626267E0,-3.131905794E0,1.156032443E0,1.072253704E1
1.611330955E0,-3.578466177E0,5.859424472E-1,1.055234814E1
1.631034965E0,-3.553341627E0,7.929216027E-1,1.008066273E1
1.650766267E0,-3.265903711E0,1.018146038E0,1.070219803E1
1.670451267E0,-3.023929596E0,1.105783105E0,1.054875851E1
1.690166840E0,-3.133102179E0,1.301994562E0,8.911469460E0
1.709848142E0,-3.224029303E0,7.139584422E-1,8.307880402E0
1.729542830E0,-3.226422310E0,-1.734796464E-1,8.716454506E0
1.749249913E0,-2.952144861E0,-7.268198729E-1,8.350951195E0
1.768951007E0,-3.136691332E0,-1.094716311E0,7.801199913E0
1.788661475E0,-3.300599813E0,-1.499402523E0,7.709076405E0
1.808361007E0,-2.952144861E0,-2.242074728E0,8.597710609E0
1.828065278E0,-2.837289333E0,-2.596511602E0,8.086244583E0
1.847799392E0,-3.430111170E0,-2.681756020E0,8.777471542E0
1.867482361E0,-2.864806890E0,-2.518744946E0,9.063713074E0
1.887185746E0,-1.633400559E0,-2.341377020E0,9.937990189E0
1.906880225E0,-8.859425783E-1,-2.293520451E0,1.100399303E1
1.926610694E0,1.347757339E0,-3.046960592E0,1.142333508E1
1.946300017E0,-9.110672474E-1,-1.602293849E0,1.006750202E1
1.966024913E0,-1.464407444E0,-1.050150037E0,1.074526882E1
1.985724757E0,-1.126720309E0,-7.208378315E-1,1.039920712E1
2.005393819E0,-6.789634377E-2,-9.209375978E-1,9.831509590E0
2.025086684E0,-1.834696770E0,-2.165504545E-1,9.946365356E0
2.044818246E0,-2.240579367E0,2.793620527E-1,9.902098656E0
2.064539548E0,-9.735797048E-1,-5.982056726E-3,9.480362892E0
2.084213246E0,-2.343769789E0,-6.658028960E-1,8.464909554E0
2.103954913E0,-3.687638760E0,-3.652045429E-1,1.171675491E1
2.123626423E0,-8.991031051E-1,-7.519445419E-1,8.472087860E0
2.143343715E0,-4.130609989E0,1.283151209E-1,9.495916367E0
2.163033559E0,-3.252743244E0,-4.022932947E-1,8.537890434E0
2.182765850E0,-3.767798424E0,-7.411768436E-1,1.020269680E1
2.202469653E0,-1.980658889E0,-1.168893814E0,9.172586441E0
2.222140225E0,-2.828914642E0,-1.274178028E0,9.049356461E0
2.241844600E0,-2.458625317E0,-1.524527073E0,9.676874161E0
2.261560017E0,-1.737488389E0,-1.542473316E0,9.497113228E0
2.281285434E0,-2.397608280E0,-1.433599830E0,8.919844627E0
2.300956319E0,-3.172583818E0,-9.149555564E-1,9.542876244E0
2.320656684E0,-3.657728434E0,-6.143572330E-1,9.862616539E0
2.340365225E0,-2.511267424E0,-5.964110494E-1,8.959325790E0
2.360067986E0,-2.590529680E0,-3.999004960E-1,1.005314541E1
2.379778559E0,-2.333002090E0,-4.034897089E-1,9.778569221E0
2.399512413E0,-2.482553482E0,-2.153540403E-1,9.717552185E0
2.419189392E0,-2.489732027E0,-2.368894368E-1,9.754640579E0
2.438882257E0,-2.317448616E0,-1.483550072E-1,9.023035049E0
2.458584757E0,-2.700599432E0,-2.886342406E-1,9.743872643E0
2.478288871E0,-2.641975403E0,-3.987040818E-1,9.786046028E0
2.498006059E0,-2.845664263E0,-2.440679073E-1,9.182157516E0
2.517696840E0,-2.659921408E0,-2.596212626E-1,9.608678818E0
2.537401371E0,-2.805883646E0,-3.197409213E-1,9.334401131E0
2.557108507E0,-2.779562712E0,-3.891327679E-1,9.282955170E0
2.576845278E0,-2.756830692E0,-4.824528694E-1,9.606286049E0
2.596513559E0,-2.830111027E0,-5.784648657E-1,9.613464355E0
2.616240955E0,-2.652743101E0,-5.916253924E-1,9.240781784E0
2.635929548E0,-2.614457846E0,-6.131607890E-1,9.794421196E0
2.655628559E0,-2.560619354E0,-5.952146053E-1,9.308079720E0
2.675330538E0,-2.618046999E0,-5.665007830E-1,9.715159416E0
2.695068246E0,-2.855235577E0,-5.964110494E-1,8.821739197E0
2.714737778E0,-2.334198475E0,-2.682952285E-1,1.042074299E1
2.734452048E0,-2.730509758E0,-3.556332588E-1,9.723533630E0
2.754143923E0,-2.282752752E0,-3.520440459E-1,8.691030502E0
2.773855642E0,-3.355933666E0,-2.213360965E-1,9.506684303E0
2.793588975E0,-2.061117649E0,-2.730808854E-1,9.662516594E0
2.813279861E0,-2.845664263E0,-3.281157911E-1,9.625428200E0
2.832978455E0,-3.107977629E0,-3.592225015E-1,9.265008926E0
2.852701580E0,-2.055135489E0,-3.209373355E-1,9.599106789E0
2.872395694E0,-2.580958366E0,-3.999004960E-1,9.536893845E0
2.892075642E0,-3.160619497E0,-3.340978622E-1,9.657731056E0
2.911777205E0,-2.376072884E0,-4.226323068E-1,9.250652313E0
2.931494809E0,-2.353341103E0,-4.788636267E-1,9.626625061E0
2.951218819E0,-3.037090063E0,-2.404786795E-1,9.662516594E0
2.970919340E0,-2.449054003E0,-3.221337497E-1,9.395418167E0
2.990591475E0,-2.258525372E0,-3.532404304E-1,9.533304214E0
3.010296371E0,-3.093620539E0,-1.136590764E-1,9.625428200E0
3.030034705E0,-2.246561289E0,-2.778665423E-1,9.056534767E0
3.049714809E0,-2.667099953E0,-3.245265782E-1,1.003489971E1
3.069406267E0,-2.918645382E0,-1.663011760E-1,9.216854095E0
3.089113038E0,-2.165205479E0,-3.113660514E-1,9.262616158E0
3.108816059E0,-2.976073265E0,1.226321608E-2,9.910472870E0
3.128535746E0,-2.234597206E0,-7.896314561E-2,8.836095810E0
3.148221111E0,-2.869592667E0,-1.328016520E-1,1.023619652E1
3.167939080E0,-2.257328987E0,-2.213360965E-1,8.989535332E0
3.187628663E0,-2.766402006E0,-1.040877849E-1,1.013210869E1
3.207337100E0,-2.298306227E0,-1.890329868E-1,9.037391663E0
3.227058038E0,-2.785544634E0,-3.939184248E-1,9.905687332E0
3.246777934E0,-2.122134686E0,-3.747758567E-1,9.296115875E0
3.266444913E0,-2.650350094E0,-3.113660514E-1,9.747462273E0
3.286161996E0,-2.136491537E0,-3.807578981E-1,9.194122314E0
3.305848350E0,-2.725723982E0,-4.668995142E-1,9.958329201E0
3.325557517E0,-2.269293070E0,-4.046861231E-1,9.248259544E0
3.345265330E0,-2.588136673E0,-1.674975902E-1,9.678070068E0
3.364967100E0,-2.546262503E0,-2.464607358E-1,9.379864693E0
3.384677465E0,-2.349751949E0,-2.632104978E-2,9.571589470E0
3.404389705E0,-2.946162939E0,-1.064806059E-1,9.745069504E0
3.424104653E0,-2.341377020E0,6.969095767E-2,9.371489525E0
3.443786163E0,-2.936591625E0,-3.828516230E-2,9.751050949E0
3.463523090E0,-2.731706142E0,-1.052841991E-1,9.125926018E0
3.483214809E0,-2.760420084E0,-7.417750359E-2,9.589535713E0
3.502919236E0,-3.039483070E0,-2.117647976E-1,9.818349838E0
3.522588767E0,-2.643171787E0,-9.212367237E-2,9.399007797E0
3.542339132E0,-2.830111027E0,-1.507478207E-1,9.624231339E0
3.562009444E0,-2.824128866E0,-2.177468538E-1,9.657731056E0
3.581744288E0,-2.819343328E0,-1.710868180E-1,9.115159035E0
3.601422205E0,-2.889931440E0,-2.440679073E-1,9.432506561E0
3.621107725E0,-3.198904753E0,-2.117647976E-1,8.833703041E0
3.640829288E0,-2.679064035E0,-1.710868180E-1,1.022423172E1
3.660528611E0,-3.100799084E0,-1.914258152E-1,9.180961609E0
3.680237673E0,-2.432304144E0,-3.412763178E-1,9.128319740E0
3.699969600E0,-3.101995468E0,-1.950150430E-1,9.875777245E0
3.719630903E0,-2.058724880E0,-1.519442350E-1,8.954540253E0
3.739341788E0,-3.128316402E0,-9.810572863E-2,9.874580383E0
3.759042621E0,-2.463410854E0,-2.189432681E-1,9.086444855E0
3.778748819E0,-3.057429075E0,-2.129612118E-1,9.591928482E0
3.798455798E0,-3.273082256E0,-1.902294010E-1,9.709177017E0
3.818159132E0,-2.474178553E0,-1.794617027E-1,9.068498611E0
3.837849340E0,-3.238386393E0,-2.404786795E-1,9.649356842E0
3.857554496E0,-3.381058455E0,-8.733802289E-2,9.660123825E0
3.877256267E0,-2.640778780E0,-1.543370634E-1,9.287740707E0
3.897010330E0,-2.201097727E0,-2.946162820E-1,9.583553314E0
3.916714444E0,-2.697010279E0,-2.464607358E-1,9.278169632E0
3.936386944E0,-3.208476067E0,-1.375873089E-1,9.619445801E0
3.956099288E0,-2.653939486E0,-1.232303679E-1,9.845867157E0
3.975825486E0,-2.502892494E0,-2.718844712E-1,9.276973724E0
3.995501059E0,-2.416750908E0,-2.356930375E-1,9.545269012E0
4.015207205E0,-2.596511602E0,-3.089732230E-1,9.273384094E0
4.034935382E0,-2.910270452E0,-3.041875660E-1,9.316454887E0
4.054608455E0,-2.901895761E0,-2.682952285E-1,9.596714020E0
4.074322048E0,-3.065804005E0,-3.293122053E-1,9.366703987E0
4.094047413E0,-2.639582396E0,-3.340978622E-1,9.833903313E0
4.113753194E0,-2.905484915E0,-3.699901998E-1,9.365508080E0
4.133437986E0,-2.554637194E0,-4.202394783E-1,9.820742607E0
4.153162100E0,-2.759223700E0,-4.513461590E-1,9.163015366E0
4.172829913E0,-2.590529680E0,-4.920241535E-1,9.798010826E0
4.192549184E0,-2.631207705E0,-5.183451772E-1,9.191729546E0
4.212267465E0,-2.483749866E0,-5.255236626E-1,9.906884193E0
4.231928455E0,-2.537588358E0,-6.406782866E-1,9.288937569E0
4.251645850E0,-2.475374937E0,-6.921239495E-1,1.005194855E1
4.271390121E0,-2.478964329E0,-7.423732281E-1,9.195318222E0
4.291108246E0,-2.300698996E0,-6.765705943E-1,1.000139999E1
4.310766163E0,-2.344966173E0,-6.957131624E-1,9.337990761E0
4.330464653E0,-2.226222277E0,-6.191428304E-1,9.994221687E0
4.350204653E0,-2.209472656E0,-6.047859192E-1,9.329615593E0
4.369881944E0,-2.047957182E0,-5.171487927E-1,9.795618057E0
4.389575694E0,-2.192722797E0,-5.003990531E-1,9.121140480E0
4.409299653E0,-2.022832394E0,-5.075774789E-1,9.638588905E0
4.428983142E0,-2.213061810E0,-4.609174728E-1,9.063713074E0
4.448695173E0,-2.069492579E0,-4.501497746E-1,9.812367439E0
4.468416163E0,-2.217847586E0,-4.621138871E-1,9.284152031E0
4.488101007E0,-2.253739834E0,-3.664009571E-1,9.772586823E0
4.507811944E0,-2.408375978E0,-4.776672125E-1,9.360722542E0
4.527506319E0,-2.348555326E0,-4.046861231E-1,9.764211655E0
4.547209548E0,-2.433500528E0,-5.593222976E-1,9.457631111E0
4.566906892E0,-2.095813513E0,-4.980062246E-1,9.675677299E0
4.586611163E0,-2.215454578E0,-6.155536175E-1,9.764211655E0
4.606355590E0,-2.022832394E0,-5.147559643E-1,9.407382011E0
4.626014184E0,-2.317448616E0,-5.928218365E-1,9.180961609E0
4.645731632E0,-2.204686880E0,-5.629115105E-1,9.967901230E0
4.665431007E0,-2.178365946E0,-6.897311211E-1,9.267401695E0
4.685143923E0,-1.859821439E0,-6.251249313E-1,9.855438232E0
4.704823663E0,-1.961516380E0,-7.423732281E-1,9.328418732E0
4.724551007E0,-1.755733609E0,-7.914260626E-1,9.825528145E0
4.744266475E0,-1.993819475E0,-8.359923959E-1,9.436096191E0
4.763987205E0,-1.599901080E0,-8.168498278E-1,1.004088211E1
4.783636892E0,-1.855035782E0,-8.814560175E-1,9.646963120E0
4.803361007E0,-1.587936878E0,-8.982058167E-1,9.764211655E0
4.823065486E0,-1.444068432E0,-6.969096065E-1,8.746364594E0
4.842776892E0,-1.253839016E0,-5.772684813E-1,9.909276962E0
4.862483038E0,-1.190130115E0,-5.461617708E-1,9.538089752E0
4.882191371E0,-1.765304923E0,-3.520440459E-1,1.012732315E1
4.901888559E0,-1.784447432E0,-4.824528694E-1,9.848259926E0
4.921601528E0,-2.159223318E0,-4.597210586E-1,1.002413273E1
4.941301059E0,-1.840678811E0,-4.405784607E-1,9.813564301E0
4.961012100E0,-1.678864241E0,-5.832505226E-1,9.512965202E0
4.980685225E0,-1.095613718E0,-5.868397355E-1,1.028764153E1
5.000438767E0,-7.818548083E-1,-7.232306600E-1,9.520144463E0
5.020112673E0,-1.154237866E0,-7.555337548E-1,1.027448177E1
5.039820538E0,-1.261017561E0,-9.185447693E-1,9.757033348E0
5.059515382E0,-1.450050473E0,-6.646065116E-1,9.167800903E0
5.079209600E0,-6.200401783E-1,-4.764707983E-1,9.899705887E0
5.098903611E0,-4.405784607E-1,-4.585246444E-1,1.003370380E1
5.118628871E0,-1.003489971E0,-1.998006850E-1,9.597910881E0
5.138333663E0,-1.695613980E0,-4.932205677E-1,1.060768223E1
5.158043767E0,-1.512562990E0,-6.981059909E-1,1.000259686E1
5.177746423E0,-9.664012194E-1,-3.927220106E-1,9.596714020E0
5.197458246E0,-6.667001843E-1,-6.526423693E-1,9.214461327E0
5.217176371E0,-8.021938205E-1,-3.759722710E-1,9.644570351E0
5.236859392E0,-1.420140266E0,-4.106681943E-1,1.050927734E1
5.256557569E0,-1.595115423E0,-7.280163169E-1,1.038365364E1
5.276261319E0,-1.447657704E0,-7.004988194E-1,1.080030441E1
5.295974809E0,-1.415354609E0,-7.304090858E-1,8.250452042E0
5.315649809E0,-1.500598907E0,-4.668995142E-1,8.384450912E0
5.335388038E0,-1.759322882E0,-6.083751321E-1,9.959526062E0
5.355076632E0,-1.332802176E0,-1.196411371E0,1.033819008E1
5.374782882E0,-1.026221752E0,-9.508479238E-1,8.136494637E0
5.394486059E0,9.601201117E-2,-8.922237158E-1,8.530712128E0
5.414174028E0,5.835496187E-1,-8.790631890E-1,9.894919395E0
5.433890903E0,3.631108403E-1,-7.603194118E-1,9.933204651E0
5.453584757E0,-1.085743308E-1,-4.824528694E-1,9.282955170E0
5.473300069E0,1.401595831E0,-2.682952285E-1,9.017052650E0
5.493011371E0,1.359721422E0,-2.632105052E-1,1.044108200E1
5.512721215E0,-1.086042404E0,-5.976074338E-1,9.086444855E0
5.532432048E0,-2.009671926E0,-6.215356588E-1,8.039585114E0
5.552118507E0,-2.881556749E0,8.099704385E-1,1.259821129E1
5.571825694E0,-1.886142492E0,-6.095715761E-1,8.915059090E0
5.591553038E0,-7.100701332E-1,-8.084749579E-1,1.093819046E1
5.611260694E0,-6.080760360E-1,-1.221535921E0,1.026969528E1
5.630952153E0,-2.907279432E-1,2.527419031E-1,1.095613670E1
5.650648350E0,-1.215553880E0,3.200400174E-1,1.104227829E1
5.670345850E0,-1.415354609E0,-3.065803945E-1,1.129262733E1
5.690051684E0,-2.129312992E0,1.259222925E-1,1.033579731E1
5.709748611E0,-9.927222729E-1,-1.118644595E0,1.083260727E1
5.729473871E0,-1.591227055E-1,-6.035895348E-1,9.480362892E0
5.749171059E0,-1.101595759E0,-9.807581902E-1,1.143769264E1
5.768872830E0,-1.805982947E0,-3.400799036E-1,1.058973598E1
5.788567934E0,-1.337587833E0,-3.436691463E-1,1.133091259E1
5.808261423E0,-1.821536183E0,-6.945167780E-1,9.119944572E0
5.827963663E0,-2.676671267E0,-3.412763178E-1,7.480262756E0
5.847688455E0,-1.868196249E0,-6.382854581E-1,1.013210869E1
5.867365225E0,-1.020239711E0,-9.209375978E-1,9.579964638E0
5.887065590E0,-5.662016869E-1,-4.692923427E-1,1.030558777E1
5.906802569E0,-1.028614640E0,-6.945167780E-1,1.098365402E1
5.926500955E0,-1.063310504E0,-2.177468538E-1,7.144968510E0
5.946202673E0,5.344967842E-1,-7.537391037E-2,8.620442390E0
5.965930590E0,-7.950153351E-1,-8.614161611E-2,8.804988861E0
5.985626267E0,-3.128316402E0,-8.144569993E-1,1.347966766E1
6.005347048E0,-2.840878725E0,-8.922237158E-1,1.055234814E1
6.025039705E0,-3.165405273E0,2.991028305E-4,7.093223572E0
6.044725017E0,-3.275475025E0,6.490531564E-2,1.119332504E1
6.064453715E0,-1.625025630E0,-6.801598072E-1,1.095135117E1
6.084122517E0,-5.937191248E-1,-9.604191780E-1,9.899705887E0
6.103800382E0,-1.374676585E0,-7.962117195E-1,1.202333546E1
6.123535642E0,-2.156830549E0,-7.040880919E-1,1.221506023E1
6.143266215E0,-1.369890928E0,-8.790631890E-1,1.033340454E1
6.162945850E0,-8.584251404E-1,-2.392822653E-1,7.502994537E0
6.182647309E0,-2.558226585E0,-1.627119333E-1,1.041595650E1
6.202364392E0,-2.134098768E0,-1.074377418E0,9.528518677E0
6.222058715E0,-2.280359983E0,-7.100701332E-1,7.899305820E0
6.241773090E0,-1.101595759E0,-2.524427772E-1,1.064955616E1
6.261469548E0,-1.753340840E0,-1.854437590E-1,9.427721024E0
6.281175903E0,-7.304090858E-1,-1.064806059E-1,7.034599304E0
6.300881736E0,-8.165507317E-1,-8.730811477E-1,7.357929707E0
6.320598611E0,-1.151844978E0,-6.969096065E-1,8.147261620E0
6.340285590E0,-1.651346684E0,-8.718847632E-1,8.050353050E0
6.359989913E0,-4.968098104E-1,-1.252642632E0,1.110449123E1
6.379713403E0,-2.160419703E0,-1.080359459E0,9.482755661E0
6.399396007E0,-2.379662037E0,-4.920241535E-1,7.419245720E0
6.419100121E0,-3.098705411E-1,-7.339983582E-1,7.831110477E0
6.438812778E0,-2.608176768E-1,-1.319641709E0,1.031157017E1
6.458504340E0,-2.311466694E0,-8.036893010E-1,1.105902767E1
6.478211111E0,-1.801197290E0,-9.843474030E-1,7.759325504E0
6.497939288E0,-1.257428288E0,-1.219143152E0,1.096451187E1
6.517618663E0,-8.979067206E-1,-6.849454641E-1,9.014659882E0
6.537327621E0,-1.023828983E0,5.341976285E-1,9.899705887E0
6.557041475E0,-8.632107973E-1,-4.704887569E-1,1.058614635E1
6.576731840E0,-2.205883265E0,-1.839482427E0,9.463613510E0
6.596442413E0,-1.663310885E0,-1.636092424E0,1.132373428E1
6.616140069E0,-2.627618313E0,-6.239284873E-1,5.565107346E0
6.635856319E0,-3.074178934E0,7.031907439E-1,1.163749313E1
6.655565382E0,-2.553440809E0,-1.905584097E0,1.099322510E1
6.675285382E0,-4.150051594E0,-1.575972795E0,9.278169632E0
6.694967830E0,3.093022346E0,-2.705684185E0,1.247139168E1
6.714686267E0,-8.189435601E-1,-9.628120065E-1,6.913762093E0
6.734367205E0,-6.897311211E-1,1.318744421E0,1.115743256E1
6.754066892E0,-1.283749342E0,6.122635007E-1,9.770194054E0
6.773769757E0,2.159522474E-1,-9.891330600E-1,1.084337521E1
6.793475486E0,-1.761715651E0,-1.864607096E0,1.031396294E1
6.813186788E0,-1.890329868E-1,-1.117448211E0,8.558229446E0
6.832918975E0,-2.791526794E0,-2.838485837E-1,1.107817078E1
6.852598403E0,-5.985047817E-1,7.498508096E-1,1.453490162E1
6.872317986E0,-1.329213023E0,7.331010103E-1,9.176176071E0
6.891998871E0,-8.476574421E-1,-1.686939895E-1,9.222835541E0
6.911712465E0,-7.627122402E-1,-6.035895348E-1,8.141280174E0
6.931411528E0,-1.204786181E0,-2.111366987E0,1.074766159E1
6.951114132E0,-4.917549610E0,1.187438220E-1,1.183280754E1
6.970815382E0,-1.678864241E0,-2.814557552E-1,8.125726700E0
6.990533090E0,-6.981059909E-1,5.667998791E-1,5.664409637E0
7.010225486E0,-1.493420482E0,9.284151793E-1,8.409575462E0
7.029928819E0,-2.658725023E0,-1.512562990E0,1.342822170E1
7.049625017E0,-1.520937920E0,-1.426421404E0,7.414460182E0
7.069362100E0,-1.609472275E0,-7.304090858E-1,9.127122879E0
7.089051736E0,-2.301895380E0,1.677966863E-1,5.382953644E0
7.108757569E0,-2.641975403E0,-7.830511928E-1,1.238255787E1
7.128474965E0,-1.706381679E0,-7.710871100E-1,9.186943054E0
7.148171736E0,-2.328216314E0,-6.801598072E-1,7.457530975E0
7.167893090E0,-1.491027594E0,-7.986045480E-1,6.021239281E0
7.187572830E0,2.937189937E-1,8.644071966E-2,8.681459427E0
7.207267205E0,3.253341436E0,2.096112728E0,1.125075340E1
7.226999132E0,-7.096513748E0,-9.939187169E-1,3.095415115E0
7.246703246E0,-1.605195236E1,-2.531905413E0,2.187339067E0
7.266382986E0,1.445354652E1,-3.848257065E0,2.717229652E1
7.286089653E0,-8.057830334E-1,-3.136691332E0,7.274180651E-1
7.305793871E0,-1.887338877E0,1.454237938E0,9.630213737E0
7.325483142E0,-3.794119358E0,-3.352942765E-1,9.412167549E0
7.345194496E0,-2.196312189E0,-2.021636009E0,5.811867237E0
7.364910486E0,-1.720738530E0,-1.715055585E0,7.031010151E0
7.384631215E0,-8.189435601E-1,8.024929166E-1,7.027420998E0
7.404311371E0,-2.142473459E0,4.193421602E-1,1.737727547E1
7.424024132E0,-5.642275810E0,-4.086641788E0,1.464646721E1
7.443739496E0,-2.795115948E0,1.199402362E-1,1.095733356E1
7.463425955E0,-3.627818346E0,-2.132902384E0,8.440681458E0
7.483135121E0,-2.922234535E0,3.018545866E0,1.158843994E1
7.502839965E0,-2.396411896E0,-1.558026671E0,8.679066658E0
7.522541111E0,-2.208276272E0,-2.417049885E0,1.215613747E1
7.542247569E0,1.345962752E-2,-2.297109663E-1,1.084457111E1
7.561928142E0,1.704586983E0,-3.217149973E0,7.424031258E0
7.581651580E0,3.803092480E0,7.043871880E-1,1.332532978E1
7.601356840E0,4.351646900E0,-4.215854168E0,8.638089895E-1
7.621086632E0,-6.072385788E0,-6.524031162E0,-1.186540961E0
7.640771007E0,-1.150768185E1,2.849552631E0,7.289734364E0
7.660450069E0,-8.580363274E0,-2.694916487E0,9.003892899E0
7.680175069E0,2.807678223E0,8.253742218E0,1.389302731E1
7.699878559E0,1.155015469E1,3.152543902E-1,1.455165195E1
7.719587465E0,-4.671986103E0,-4.494917393E0,-5.161916733E0
7.739291892E0,-4.970490932E0,2.940479994E0,1.896670914E1
7.758985069E0,-2.275574446E0,-8.395816684E-1,-2.567797899E0
7.778675330E0,-6.753742099E-1,-2.181057930E0,1.310489178E1
7.798400798E0,-4.980062246E-1,1.980060697E0,1.603699684E1
7.818104236E0,-4.597210586E-1,-2.122134686E0,1.262453270E1
7.837801528E0,-4.812564552E-1,-3.496512175E-1,1.279711437E1
7.857498038E0,3.619144112E-2,1.004985452E0,1.254317665E1
7.877199965E0,-3.122633696E-1,-7.088736892E-1,1.934268188E1
7.896898455E0,5.368895531E-1,7.881359458E-1,5.268098354E0
7.916625330E0,-3.482753277E0,1.235294715E-1,1.183759308E1
7.936338350E0,-4.636093974E-2,1.583450437E0,1.267717457E1
7.956025382E0,-1.163809061E0,-3.987040818E-1,7.564011574E0
7.975739184E0,4.890331328E-1,-1.806581169E-1,8.903095245E0
7.995439184E0,-1.851446509E0,-9.065806866E-1,1.128544903E1
8.015144965E0,-3.864408433E-1,-1.482652783E0,1.070937729E1
8.034844392E0,8.303094506E-1,-1.076770201E-2,1.056909752E1
8.054545798E0,-3.756731451E-1,-9.571290575E-3,1.056909752E1
8.074269705E0,-7.292127013E-1,-2.325823545E0,1.099442196E1
8.093964184E0,-7.519445419E-1,-1.651645780E0,8.795417786E0
8.113670694E0,1.711765528E0,2.030309916E0,1.099561787E1
8.133387048E0,3.507279873E0,3.754039526E0,7.676773071E0
8.153066632E0,-1.084846020E0,6.110670567E-1,8.674281120E0
8.172782778E0,-7.890332699E0,-5.065007210E0,1.194437218E1
8.192524600E0,-1.955534339E0,-2.271985054E0,6.874280453E0
8.212188194E0,-1.531406492E-1,-6.669993401E-1,1.175384426E1
8.231903038E0,-8.117650747E-1,-1.755733609E0,5.856134415E0
8.251607205E0,-1.640578985E0,7.223333120E-1,5.864509106E0
8.271300486E0,-2.252543449E0,-1.569990754E0,2.042304039E1
8.291001996E0,-2.566601276E0,-1.857428551E0,8.378468513E0
8.310707309E0,6.926922321E0,8.482556343E-1,-1.586740494E0
8.330413455E0,-1.313061416E-1,-1.547258973E0,1.079192924E1
8.350096111E0,-1.094477081E1,-2.975175858E0,1.620598984E1
8.369833090E0,-2.786741018E0,1.111765265E0,4.854738235E0
8.389528298E0,-4.063611031E0,-2.322234392E0,6.070590973E0
8.409235955E0,-1.109671518E-1,-4.492524624E0,1.243280697E1
8.428938298E0,-2.933002472E0,-1.026221752E0,1.872234154E1
8.448646267E0,-2.342573404E0,1.465005636E0,1.313061476E0
8.468373194E0,-1.568794370E0,-2.643171787E0,1.258983612E1
8.488046371E0,-1.741376638E0,-1.639681697E0,1.015603638E1
8.507746475E0,-1.731506228E0,-1.053739309E0,1.049850941E1
8.527484288E0,-1.462014675E0,-5.449653864E-1,8.579764366E0
8.547166267E0,-2.815753937E0,-1.572383523E0,4.848755836E0
8.566859236E0,-1.887338877E0,-1.280160099E-1,1.497219086E1
8.586568194E0,-1.513759375E0,-1.648056626E0,6.218945980E0
8.606271684E0,-8.261220455E-1,-1.651645780E0,1.522014618E1
8.625986580E0,-3.511467218E0,-3.899702787E0,8.697012901E0
8.645681632E0,-2.018046856E0,-1.340279818E0,1.544178200E1
8.665383194E0,-1.457229018E0,8.829515576E-1,8.505587578E0
8.685086944E0,-1.181755304E0,-5.581258535E-1,1.195872974E1
8.704819496E0,-1.325025558E-1,-8.009973764E-1,8.649156570E0
8.724502882E0,-1.294517040E0,-8.946165442E-1,1.352034569E1
8.744178142E0,-3.216850996E0,-1.196411327E-1,1.338873959E1
8.763909132E0,-2.882753134E0,-6.346961856E-1,9.110373497E0
8.783616319E0,-2.301895380E0,-2.170290232E0,6.543472767E0
8.803311423E0,-1.650150299E0,-3.376871049E-1,1.194078350E1
8.823013142E0,-1.294517040E0,-2.572284341E-1,1.187827110E1
8.842721944E0,-1.981855392E0,1.226321608E-2,1.414218044E1
8.862426111E0,-2.300698996E0,-4.178466499E-1,7.068099022E0
8.882131215E0,-1.814357758E0,-8.946165442E-1,1.124237823E1
8.901831215E0,-2.037189484E0,-1.060917735E0,8.472087860E0
8.921550746E0,-1.645364642E0,1.654038578E-1,1.199103260E1
8.941241892E0,-1.086042404E0,-2.754737139E-1,1.173350525E1
8.960942673E0,-1.834696770E0,-5.988038778E-1,7.762914658E0
8.980656319E0,-1.139880896E0,-1.166501045E0,5.175675392E0
9.000352517E0,-1.622632861E0,-5.545366406E-1,8.159226418E0
9.020071163E0,2.691925503E-3,-8.395816684E-1,1.233709431E1
9.039761684E0,-1.120738268E0,-1.292124271E0,1.142094231E1
9.059456788E0,-2.329412937E0,-8.838488460E-1,9.039784431E0
9.079200173E0,-2.416750908E0,-1.520937920E0,9.282955170E0
9.098872830E0,-8.225327730E-1,-8.790631890E-1,1.029003429E1
9.118575225E0,-9.266205430E-1,-4.426721856E-2,9.640981674E0
9.138278403E0,-9.349954724E-1,-1.122233868E0,1.122921753E1
9.157994288E0,-1.071685433E0,-1.174875975E0,1.009023380E1
9.177695903E0,-1.333998680E0,-3.436691463E-1,1.057268715E1
9.197404236E0,-1.575972795E0,-1.255035520E0,1.107697392E1
9.217107048E0,-2.573779821E0,-1.167697430E0,1.342702484E1
9.236804184E0,-1.653739572E0,-4.704887569E-1,8.523533821E0
9.256522725E0,-2.173580170E0,-6.562315822E-1,1.042313576E1
9.276217153E0,-1.887338877E0,-3.364906907E-1,9.195318222E0
9.295918663E0,-1.151844978E0,-3.759722710E-1,1.208195972E1
9.315614132E0,-2.864806890E0,-9.807581902E-1,7.409674644E0
9.335311371E0,-2.356930256E0,-4.728815854E-1,1.151306629E1
9.355035903E0,-2.225025892E0,-9.472586513E-1,9.084052086E0
9.374755173E0,-1.647757530E0,-4.824528694E-1,1.035972595E1
9.394474288E0,-2.030010939E0,-6.263213158E-1,8.933005333E0
9.414141059E0,-1.098006487E0,-4.307080805E-2,9.117551804E0
9.433852465E0,-1.695613980E0,-3.412763178E-1,8.674281120E0
9.453555225E0,-2.002194405E0,-4.884349108E-1,9.026624680E0
9.473264809E0,-1.821536183E0,-6.334998012E-1,9.473184586E0
9.492962882E0,-2.483749866E0,-5.892325640E-1,9.349954605E0
9.512667673E0,-1.999801517E0,-9.664012194E-1,9.055337906E0
9.532376840E0,-2.062314034E0,-6.981059909E-1,9.195318222E0
9.552077048E0,-8.524430394E-1,-7.328019142E-1,1.168923759E1
9.571761944E0,-1.323230863E0,-5.219344497E-1,8.409575462E0
9.591487778E0,-1.839482427E0,-4.178466499E-1,9.005088806E0
9.611192778E0,-1.349551916E0,-8.790631890E-1,1.179691505E1
9.630895590E0,-1.868196249E0,-7.351947427E-1,8.942576408E0
9.650596475E0,-1.883749604E0,-3.843471408E-1,1.072373390E1
9.670304548E0,-1.759322882E0,-1.065703392E0,1.028166008E1
9.689993611E0,-1.239482164E0,-4.621138871E-1,9.748658180E0
9.709717048E0,-1.032203913E0,-3.364906907E-1,1.115623665E1
9.729416319E0,-1.138684511E0,-7.112665176E-1,9.103194237E0
9.749141215E0,-1.942373753E0,-8.228318691E-1,1.001815033E1
9.768820434E0,-1.938784599E0,-1.164108157E0,1.040997505E1
9.788522309E0,-2.380858421E0,-9.616156220E-1,1.064237785E1
9.808235173E0,-2.366501570E0,-1.205982566E0,1.020867825E1
9.827934444E0,-2.428714991E0,-9.580263495E-1,9.607481956E0
9.847632882E0,-2.245364904E0,-1.313659668E0,9.709177017E0
9.867322517E0,-2.191526413E0,-9.735797048E-1,9.483952522E0
9.887024392E0,-2.532802820E0,-5.521438122E-1,9.542876244E0
9.906756788E0,-3.914059639E0,-1.567298770E-1,8.943773270E0
9.926483090E0,-3.728316784E0,2.542374097E-2,8.813364029E0
9.946160225E0,-8.105687052E-2,-2.161915302E0,8.822935104E0
9.965859548E0,-8.249256015E-1,-1.859821439E0,9.430113792E0
9.985567778E0,-1.390229940E0,-1.240678549E0,7.977371693E0
1.000527965E1,-1.553241014E0,-5.593222976E-1,8.391629219E0
1.002496924E1,-1.547258973E0,-5.545366406E-1,8.704191208E0
1.004467653E1,-1.665703654E0,-5.315057039E-1,8.522336960E0
1.006437924E1,-1.249053478E0,-7.028916478E-1,1.059571743E1
1.008408778E1,-1.319641709E0,-1.085145116E0,1.020508957E1
1.010379090E1,-1.507777333E0,-1.002293587E0,8.751151085E0
1.012351356E1,-1.385444283E0,-4.286143482E-1,1.009382343E1
1.014318887E1,-2.045564175E0,-4.788636267E-1,1.068185902E1
1.016289861E1,-1.989033818E0,-1.100698471E0,1.092502975E1
1.018261960E1,-2.041975021E0,-8.060821295E-1,1.150708389E1
1.020231439E1,-1.586740494E0,-1.002293587E0,1.112752247E1
1.022202278E1,-1.550848126E0,-9.412766099E-1,1.199940777E1
1.024173418E1,-1.357926846E0,-1.263410330E0,1.049372387E1
1.026142851E1,-2.209472656E0,-1.433599830E0,1.020508957E1
1.028113538E1,-1.892124534E0,-1.082752228E0,1.082183933E1
1.030083648E1,-1.076471090E0,-1.520937920E0,1.113829041E1
1.032055137E1,-1.534098387E0,-1.005882859E0,9.287740707E0
1.034026361E1,-7.950153351E-1,-5.916253924E-1,1.086879826E1
1.035997080E1,-1.015454054E0,-8.527421951E-1,8.783453941E0
1.037967653E1,3.738785535E-2,-8.120641708E-1,8.540283203E0
1.039936153E1,-1.181456149E-1,-5.641079545E-1,8.438288689E0
1.041907085E1,-1.399801224E-1,-3.424727321E-1,7.620242596E0
1.043876632E1,-1.721935034E0,-6.610172391E-1,1.066989517E1
1.045847257E1,-2.749652386E0,-3.233301640E-1,8.921041489E0
1.047819481E1,-2.916252613E0,-1.341476202E0,7.522137165E0
1.049787179E1,-2.291127682E0,-1.196411322E-3,1.106501007E1
1.051757856E1,-2.609672308E0,-7.806583643E-1,6.656234264E0
1.053730038E1,-4.027718544E0,-6.143572330E-1,6.128018856E0
1.055699627E1,-4.261318207E0,1.845464408E-1,1.140658569E1
1.057669955E1,-2.180758715E0,-1.070788145E0,7.130611420E0
1.059641361E1,-2.082653046E0,-7.328019142E-1,1.044467068E1
1.061610471E1,-3.166601658E0,-3.975076675E-1,7.349554539E0
1.063582705E1,-3.057429075E0,-1.615155339E-1,8.493622780E0
1.065551293E1,-2.616850615E0,-2.273181528E-1,8.062316895E0
1.067519825E1,-1.616650820E0,-1.203589797E0,7.047760010E0
1.069492408E1,-2.225025892E0,-9.843474030E-1,6.962814808E0
1.071464137E1,-5.303093195E-1,-2.730808854E-1,1.003250694E1
1.073434444E1,4.184448719E-1,-2.991028316E-2,7.050152779E0
1.075404012E1,-6.571289301E-1,-7.782655358E-1,8.561818123E0
1.077373418E1,-1.654935956E0,-1.532902002E0,1.095852947E1
1.079344106E1,-1.244267821E0,-8.886345029E-1,1.070459080E1
1.081314965E1,-4.908277392E-1,-7.758727670E-1,8.691030502E0
1.083284866E1,-8.225327730E-1,5.892325938E-2,9.048159599E0
1.085254997E1,-5.422734022E-1,-5.712863803E-1,1.458874035E1
1.087227491E1,-1.438086390E0,-1.463510156E0,1.127707386E1
1.089196002E1,-2.123331070E0,-9.520443082E-1,1.262333584E1
1.091166210E1,-1.677667737E0,-1.148554832E-1,1.409552002E1
1.093138205E1,-2.584547520E0,-1.207179070E0,1.358046532E1
1.095107455E1,-3.001197815E0,6.134598851E-1,1.276720428E1
1.097077913E1,-2.759223700E0,-3.364906907E-1,1.275643635E1
1.099047564E1,-3.269493103E0,-9.496514797E-1,1.125912762E1
1.101018778E1,-3.361915827E0,-3.412763178E-1,9.232406616E0
1.102989887E1,-2.741277456E0,3.128615618E-1,8.942576408E0
1.104958356E1,-1.883749604E0,1.319043487E-1,1.028524876E1
1.106929372E1,-1.772483349E0,-2.404786795E-1,1.008066273E1
1.108900783E1,-1.050150037E0,-8.021938205E-1,6.367599964E0
1.110867429E1,-2.833700180E0,-7.902296782E-1,1.016680431E1
1.112837189E1,-2.317448616E0,-9.352945685E-1,8.380861282E0
1.114810981E1,-9.843474030E-1,-5.075774789E-1,7.245467186E0
1.116781465E1,6.735795736E-1,6.361917257E-1,9.516554832E0
1.118751861E1,-9.266205430E-1,-1.040877849E-1,7.347161770E0
1.120722898E1,-8.596215248E-1,-1.852642894E0,1.085085201E1
1.122693517E1,-8.763712645E-1,-1.638485312E0,6.173482418E0
1.124664080E1,-1.198505044E0,-5.315057039E-1,8.601300240E0
1.126633309E1,-1.977069736E0,-9.675976634E-1,8.355736732E0
1.128604747E1,-1.482652783E0,-4.286143482E-1,1.136441231E1
1.130575627E1,-1.046560764E0,-1.553241014E0,1.092742252E1
1.132546918E1,-1.162612677E0,-9.699904919E-1,8.027621269E0
1.134516835E1,-1.100399256E0,-5.641079545E-1,9.873384476E0
1.136487252E1,-1.648953915E0,-1.289731383E0,1.074048328E1
1.138456309E1,-2.501696110E0,-1.353440285E0,9.943972588E0
1.140430767E1,-8.512466550E-1,-1.211964726E0,1.020748234E1
1.142397137E1,-2.863610506E0,-9.592227936E-1,1.284377480E1
1.144368278E1,-2.876770973E0,-1.734198213E0,1.093101215E1
1.146338267E1,-2.205883265E0,-3.891327679E-1,1.235743332E1
1.148311825E1,-9.819545746E-1,-3.532404304E-1,9.396614075E0
1.150277408E1,-2.153241158E0,-1.674377680E0,1.134526920E1
1.152249986E1,-1.859821439E0,4.935196787E-2,1.542981815E1
1.154220116E1,-1.549651742E0,-1.689931035E0,7.470691204E0
1.156192799E1,-8.153542876E-1,1.127617657E-1,1.465244961E1
1.158161075E1,-9.314061999E-1,-1.099501967E0,7.861020565E0
1.160132127E1,-1.894517303E0,-1.023828983E0,7.290930748E0
1.162103179E1,-1.047757268E0,8.183453679E-1,1.156092262E1
1.164072283E1,-1.098006487E0,-3.257229924E-1,6.355636120E0
1.166042439E1,-6.523432732E-1,4.935196787E-2,1.009023380E1
1.168013278E1,-1.768894196E0,-1.137787223E0,4.735096931E0
1.169983434E1,-1.508973837E0,-2.512463629E-1,1.477567959E1
1.171953986E1,-1.894517303E0,3.942175210E-1,5.986543179E0
1.173924163E1,-1.780858278E0,1.474576890E-1,1.252164078E1
1.175894788E1,-1.027418256E0,-7.339983582E-1,6.227321148E0
1.177865642E1,-1.713560104E0,4.265206456E-1,6.619145870E0
1.179836346E1,-2.119741678E0,1.271187067E-1,1.484866047E1
1.181807632E1,-2.067099571E0,-6.729813814E-1,8.030014038E0
1.183777189E1,-1.227517962E0,-7.794619799E-1,1.073210907E1
1.185746007E1,-8.177471161E-1,-4.082753658E-1,5.647659779E0
1.187716153E1,-1.983051777E0,-6.562315822E-1,1.062802124E1
1.189688705E1,-2.083849430E0,-9.711868763E-1,1.371207047E1
1.191658398E1,-2.359323025E0,-4.393820465E-1,6.729215622E0
1.193630351E1,-1.960319996E0,1.462612897E-1,9.260223389E0
1.195599372E1,-1.791625977E0,1.465603895E-2,9.957133293E0
1.197567908E1,-1.602293849E0,-7.459624410E-1,8.707780838E0
1.199540731E1,-1.983051777E0,-2.069791555E-1,1.036690426E1
1.201508116E1,-1.771286964E0,-3.867399693E-1,1.096929741E1
1.203480632E1,-1.972284079E0,-1.597508192E0,1.197428226E1
1.205449601E1,-4.525425732E-1,-9.065806866E-1,5.387739182E0
1.207421700E1,-1.253240854E-1,9.481559694E-2,1.142094231E1
1.209392007E1,-1.642971873E0,-3.089732230E-1,7.445566654E0
1.211362569E1,-1.778465390E0,-6.358926296E-1,1.351197052E1
1.213334450E1,-1.968694806E0,-1.384546995E0,1.027328491E1
1.215305710E1,-1.720738530E0,-2.536391914E-1,6.605985165E0
1.217275590E1,-1.603490233E0,-2.273181528E-1,1.282702446E1
1.219246642E1,-4.860421121E-1,2.721835673E-1,7.863413334E0
1.221214377E1,-1.003489971E0,-2.656033039E-1,1.175743294E1
1.223185408E1,-1.646561027E0,-5.796613097E-1,1.032622623E1
1.225155549E1,-1.671685696E0,-2.898306549E-1,8.695816994E0
1.227125528E1,-1.465603828E0,-7.304090858E-1,1.178375435E1
1.229094543E1,-1.438086390E0,-2.718844712E-1,1.125314617E1
1.231067116E1,-2.065903187E0,-5.629115105E-1,9.381061554E0
1.233037111E1,-7.902296782E-1,-1.258624673E0,1.218873978E1
1.235006340E1,-1.282552958E0,-2.095813513E0,6.810571671E0
1.236978965E1,-1.941177368E0,9.481559694E-2,9.674481392E0
1.238946590E1,-1.139880896E0,-6.323033571E-1,9.292527199E0
1.240920059E1,-1.186540961E0,-1.821536183E0,7.958229065E0
1.242892335E1,-1.257428288E0,-3.807578981E-1,1.320180035E1
1.244860814E1,-1.343569875E0,-1.591526151E0,9.347561836E0
1.246829944E1,-2.353341103E0,-3.436691463E-1,9.558428764E0
1.248801215E1,-1.593919039E0,-4.453641176E-1,7.961818218E0
1.250769653E1,-6.741777658E-1,-1.002293587E0,1.252642632E1
1.252741486E1,-6.487540603E-1,1.235294715E-1,8.820542336E0
1.254711924E1,-9.664012194E-1,-1.196411345E-2,9.241978645E0
1.256681767E1,-1.293320656E0,2.443670183E-1,1.019073296E1
1.258654106E1,-1.764108539E0,-1.316052489E-2,1.124596691E1
1.260625116E1,-1.318445325E0,-1.022632599E0,1.002891827E1
1.262594538E1,-9.771689177E-1,-6.323033571E-1,1.042313576E1
1.264566189E1,-1.068096161E0,-4.334000051E-1,8.341380119E0
1.266533887E1,-2.275574446E0,-8.276175261E-1,1.104826069E1
1.268504934E1,-1.650150299E0,-1.972583175E0,7.929515362E0
1.270474903E1,-9.424729943E-1,-9.520443082E-1,1.178016472E1
1.272443981E1,-1.325623751E0,-9.687940478E-1,5.624927998E0
1.274416913E1,-2.413161755E0,-7.351947427E-1,1.489681625E1
1.276386830E1,-2.137687922E0,-9.077770710E-1,6.959225655E0
1.278357346E1,-1.148255825E0,-1.464706540E0,1.048176003E1
1.280327528E1,-5.267201066E-1,-6.933203340E-1,9.058927536E0
1.282297731E1,-1.950748682E0,-9.711868763E-1,9.639784813E0
1.284268825E1,-1.522134304E0,-2.584248483E-1,9.835099220E0
1.286239262E1,-1.602293849E0,-1.103091240E0,8.637192726E0
1.288208825E1,-8.955138922E-1,-1.319641709E0,9.232406616E0
1.290181398E1,-1.048953652E0,-8.431708813E-1,1.136082268E1
1.292149299E1,-1.577169180E0,-1.087537885E0,1.018116093E1
1.294120049E1,-1.831107497E0,-1.140179992E0,7.506583691E0
1.296091653E1,-1.229910851E0,-3.879363835E-1,8.974879265E0
1.298061226E1,-7.351947427E-1,-3.293122053E-1,1.093220806E1
1.300030846E1,-1.797608018E0,-2.225325108E-1,1.005194855E1
1.302001590E1,-1.959123492E0,-2.057827413E-1,1.040279675E1
1.303972856E1,-1.075274706E0,-6.681957245E-1,8.178668022E0
1.305942689E1,-1.099202871E0,-5.665007830E-1,1.144487095E1
1.307913788E1,-1.646561027E0,-9.690931439E-2,1.145683479E1
1.309883955E1,-1.423729420E0,-5.665007830E-1,9.885348320E0
1.311851830E1,-1.639382601E0,-4.597210586E-1,8.269595146E0
1.313822111E1,-9.687940478E-1,-9.077770710E-1,1.120050335E1
1.315797835E1,-2.108973980E0,-8.503493667E-1,9.425328255E0
1.317767502E1,-2.610868692E0,-1.591227055E-1,1.067468071E1
1.319736241E1,-9.436694384E-1,-4.426721856E-2,1.049850941E1
1.321706215E1,-9.448658228E-1,-5.075774789E-1,8.268398285E0
1.323677257E1,-1.767697692E0,-7.028916478E-1,1.075603676E1
1.325650069E1,-1.593919039E0,-4.992026389E-1,1.216211891E1
1.327616762E1,-1.040578723E0,-1.270588875E0,6.511169434E0
1.329586257E1,-1.938186288E-1,-1.399801224E-1,8.147261620E0
1.331557861E1,-1.193719387E0,1.474576890E-1,1.272533035E1
1.333528502E1,-1.578365684E0,-1.339980662E-1,8.401200294E0
1.335502205E1,-7.172485590E-1,3.284149170E-1,1.040518951E1
1.337470017E1,9.840483218E-2,-4.357928336E-1,9.061320305E0
1.339438856E1,-4.995017126E-2,-1.264606714E0,1.107458115E1
1.341413314E1,-2.572284341E-1,-1.184447184E-1,9.922437668E0
1.343381522E1,-8.285148144E-1,-2.117647976E-1,6.584449768E0
1.345350955E1,-1.107577801E0,-6.658028960E-1,1.100758266E1
1.347322205E1,-4.609174728E-1,-9.221340418E-1,1.162074280E1
1.349292101E1,-1.843071699E0,-6.969096065E-1,7.110272408E0
1.351260668E1,-3.419343472E0,-1.149751306E0,1.358644676E1
1.353233522E1,-1.597508192E0,-1.203589797E0,9.293723106E0
1.355203757E1,-1.313659668E0,-3.939184248E-1,1.023499966E1
1.357173872E1,-3.684946895E-1,1.465005636E0,1.278993607E1
1.359142267E1,-1.065703392E0,-4.800600410E-1,9.087641716E0
1.361112387E1,-5.745765567E-1,-1.681556106E0,1.268315601E1
1.363084260E1,-1.457229018E0,5.919244885E-1,1.013809013E1
1.365056197E1,-2.172383785E0,-1.077966571E0,8.131709099E0
1.367026447E1,-3.242274821E-1,-9.077770710E-1,1.396241951E1
1.368996270E1,-9.460622668E-1,-1.063310504E0,8.801400185E0
1.370967130E1,-1.426122308E0,2.012962103E-1,6.536293983E0
1.372937020E1,1.944168359E-1,-5.461617708E-1,1.015484047E1
1.374905802E1,-3.960121572E-1,-4.250251353E-1,8.475676537E0
1.376878635E1,-1.708774447E0,-8.288139701E-1,5.646463394E0
1.378847927E1,-8.380861282E-1,-1.196411322E-3,1.033220863E1
1.380818921E1,6.194419861E-1,-9.867402315E-1,1.306421375E1
1.382789432E1,-1.123131156E0,-6.287141442E-1,4.925326347E0
1.384759802E1,-9.771689177E-1,2.670988142E-1,9.685248375E0
1.386731463E1,-3.014956415E-1,-1.835893154E0,8.828917503E0
1.388701776E1,-5.673980713E-1,-1.233500123E0,1.240528965E1
1.390672453E1,2.267199457E-1,-1.838286042E0,1.132373428E1
1.392642078E1,-1.168594718E0,-8.754739761E-1,8.634799957E0
1.394613369E1,-1.603191197E-1,-7.782655358E-1,5.306383133E0
1.396580255E1,-2.264507532E0,-1.134197950E0,1.848754501E1
1.398552010E1,-2.417947292E0,-2.561815739E0,9.755837440E0
1.400522437E1,-1.471585870E0,1.366899908E-1,7.868198872E0
1.402493067E1,-4.621138871E-1,-3.317050338E-1,1.142094231E1
1.404463703E1,-2.708974361E0,-2.041975021E0,1.241725445E1
1.406437421E1,-1.733899117E0,-3.879363835E-1,1.175862980E1
1.408405546E1,-1.818545163E-1,-1.342672586E0,7.636992455E0
1.410378401E1,-9.544371367E-1,-1.491027594E0,6.995117664E0
1.412344177E1,-3.457628787E-1,2.195713997E0,1.061605644E1
1.414315484E1,-2.015654087E0,-1.713859200E0,8.966505051E0
1.416286828E1,-3.295814037E0,-4.257728577E0,1.491715527E1
1.418256671E1,5.751747489E-1,3.956233025E0,8.693424225E0
1.420230265E1,2.357528448E0,-1.082752228E0,6.456134796E0
1.422197135E1,8.195417523E-1,-1.374975681E0,6.033502102E0
1.424167437E1,-3.098406315E0,-4.803890705E0,7.286144733E0
1.426140505E1,-2.404786795E-1,2.429313183E0,1.821207237E1
1.428108729E1,1.043868884E-1,7.582256794E-1,-3.717549086E0
1.430080734E1,6.469594240E-1,2.000997961E-1,1.539721584E1
1.432049145E1,-8.452646136E-1,-4.429712892E-1,9.819545746E0
1.434020557E1,-1.338784218E0,4.025924206E-1,1.588714600E1
1.435991171E1,-1.684846282E0,2.781357288E0,6.748358250E0
1.437963989E1,-1.355534077E0,-1.591227055E-1,1.076560783E1
1.439931645E1,9.658030272E-1,-2.153540403E-1,1.202213955E1
1.441900218E1,2.195713997E0,-4.166502357E-1,1.100040436E1
1.443873520E1,-5.207380056E-1,-2.875574589E0,8.574978828E0
1.445842192E1,6.699903607E-1,-1.782652885E-1,1.030558777E1
1.447812270E1,-4.188336849E0,6.613163352E-1,1.381406403E1
1.449783869E1,-1.247856975E0,-1.235892892E0,7.077670097E0
1.451754619E1,-2.427518606E0,4.229314029E-1,4.621138573E0
1.453722609E1,-3.541377485E-1,1.126122117E0,1.283300686E1
1.455694895E1,-2.567797899E0,-2.396411896E0,1.194437218E1
1.457665218E1,-2.869592667E0,-1.231107235E0,1.129143143E1
1.459635322E1,5.413761362E-2,-9.580263495E-1,9.886545181E0
1.461606203E1,-1.555633783E0,1.004985452E0,5.017749310E0
1.463576156E1,-2.159223318E0,1.154836059E0,1.499851131E1
1.465545020E1,-7.591229677E-1,-1.286142230E0,1.009023380E1
1.467517843E1,-2.087438583E0,3.678964674E-1,5.847460628E-1
1.469488541E1,-3.722334623E0,1.618146300E-1,1.099801064E1
1.471459354E1,3.284149170E-1,-1.579262912E-1,1.134885883E1
1.473429848E1,-5.865406394E-1,2.407777756E-1,1.216451168E1
1.475401276E1,-1.337587833E0,-6.071787477E-1,7.971389771E0
1.477369921E1,-1.709970832E0,-9.329017401E-1,7.961818218E0
1.479340291E1,-4.157529399E-2,6.146563292E-1,6.393921375E0
1.481309963E1,3.762713671E-1,-2.112563372E0,4.098905087E0
1.483281057E1,8.578268886E-1,-2.232503414E0,9.290133476E0
1.485251557E1,3.677469254E0,2.288136631E-1,1.235025501E1
1.487221203E1,1.163510010E-1,1.729711652E0,3.310769320E0
1.489193359E1,-2.675474882E0,-1.841875196E0,1.214895916E1
1.491162307E1,-8.285148144E-1,-3.330809116E0,9.006285667E0
1.493133614E1,-3.337987661E-1,-4.067798331E-2,8.069495201E0
1.495103302E1,1.127617657E-1,-3.987040818E-1,8.408378601E0
1.497075166E1,-1.371087432E0,-1.872981906E0,1.426541042E1
1.499044203E1,-1.187737346E0,-2.126920223E0,8.944969177E0
1.501013838E1,-9.110672474E-1,1.219442248E0,8.426324844E0
1.502985307E1,-4.649254322E0,-1.774876237E0,1.991636086E1
1.504958317E1,-3.875475407E0,-1.735394597E0,1.545733547E1
1.506925395E1,-6.188437343E-1,1.498505175E-1,7.895716667E0
1.508897364E1,1.498804331E0,7.534400225E-1,1.306301689E1
1.510865494E1,7.968099117E-1,-6.490531564E-1,1.680000687E1
1.512835562E1,-2.359323025E0,-1.482652783E0,8.273183823E0
1.514807916E1,3.894318938E-1,-6.729813814E-1,1.454208088E1
1.516778104E1,2.027917206E-1,-6.825526357E-1,9.335597992E0
1.518748572E1,-1.663011760E-1,-5.389832854E-1,7.807182312E0
1.520716583E1,1.764706671E-1,-5.135595798E-1,1.045184898E1
1.522690328E1,-2.344966233E-1,-8.551349640E-1,4.890630245E0
1.524660124E1,1.406381488E0,2.180459648E-1,9.903294563E0
1.526631921E1,-2.093719784E-3,-1.225125194E0,5.394917965E0
1.528600229E1,2.410768867E-1,-1.606182218E0,1.090229797E1
1.530570557E1,-1.250249863E0,-2.142772675E0,6.384349823E0
1.532540046E1,6.649056077E-1,-1.073180914E0,1.272024536E1
1.534511656E1,-6.248258352E-1,-2.057827413E-1,8.257631302E0
1.536482182E1,-8.727820516E-1,-2.826521695E-1,9.481559753E0
1.538454109E1,-2.014457464E0,-3.592225015E-1,1.768146324E1
1.540423541E1,-2.401197433E0,-4.381856322E-1,4.573282242E0
1.542394911E1,-9.592227936E-1,2.345265388E0,1.833889198E1
1.544361895E1,-1.176969647E0,-7.058826834E-2,1.135005474E1
1.546333869E1,-1.259821177E0,-3.694817305E0,8.753543854E0
1.548304385E1,1.516750455E0,-3.053839803E-1,1.161476135E1
1.550275098E1,-1.136291623E0,-5.961119175E0,4.568496704E0
1.552245182E1,-3.317349434E0,-5.742774159E-2,1.512533092E1
1.554213750E1,-3.242274821E-1,4.948058128E0,1.291914845E1
1.556185593E1,-3.902095556E0,-2.825325251E0,6.104090691E0
1.558157640E1,-1.126720309E0,-1.626521230E0,6.684948444E0
1.560126296E1,-3.474378586E0,-2.236092806E0,7.137789726E0
1.562098817E1,-1.117149115E0,2.571686029E0,1.265683556E1
1.564068291E1,1.439880967E0,-3.711866140E-1,5.933900833E0
1.566039802E1,-9.302098155E-1,-2.201396942E0,6.605985165E0
1.568008666E1,-2.608176768E-1,-1.818545163E-1,1.048056316E1
1.569979072E1,-7.028916478E-1,7.474579811E-1,1.146162033E1
1.571951104E1,2.745763958E-1,-3.819543123E-1,9.583553314E0
1.573921979E1,-1.292124271E0,-1.971386790E0,4.096512318E0
1.575891927E1,-1.225125194E0,-5.353940725E-1,1.224257755E1
1.577861083E1,-1.305284739E0,-1.077966571E0,7.852645874E0
1.579830817E1,-1.169791222E0,-1.470688581E0,8.748757362E0
1.581801791E1,-4.396811500E-2,2.588435888E0,9.512965202E0
1.583772510E1,4.351946115E-1,-1.033400297E0,1.060648537E1
1.585742895E1,1.167996526E0,-4.848456979E-1,5.647659779E0
1.587711229E1,2.581556559E0,4.169493318E-1,9.046963692E0
1.589683343E1,1.311864972E0,-2.755933523E0,6.252445698E0
1.591655656E1,-3.744767308E-1,3.367897868E-1,1.268794250E1
1.593623781E1,-9.999007583E-1,3.439682424E-1,6.070590973E0
1.595593927E1,-3.136691332E0,1.183549881E0,9.188139915E0
1.597565291E1,-3.257529020E0,2.924926519E0,1.552672672E1
1.599536489E1,-3.245564699E0,2.183749676E0,4.587639332E0
1.601507046E1,-3.242274821E-1,-6.878467560E0,1.580578995E1
1.603475583E1,-9.903294444E-1,-7.471588850E-1,9.341579437E0
1.605446572E1,-2.700599432E0,-2.566601276E0,1.186152077E1
1.607416614E1,-2.906681299E0,-1.695913076E0,1.658076477E1
1.609386609E1,-1.755733609E0,2.411366940E0,4.694119930E0
1.611356984E1,3.037688255E0,1.509272933E0,1.617697716E1
1.613329291E1,4.635495663E0,2.081755638E0,1.198265743E1
1.615297859E1,-1.446461320E0,-1.613360643E0,6.852745056E0
1.617268348E1,-1.052542806E0,-3.474378586E0,4.916951656E0
1.619239593E1,-5.182255745E0,9.260223508E-1,1.729711723E1
1.621210093E1,-4.274179339E-1,-1.447657645E-1,1.053440189E1
1.623180229E1,-6.909275055E-2,1.840977907E0,5.536393166E0
1.625151239E1,8.279166222E-1,1.226321608E-2,4.643870354E0
1.627121687E1,1.829312921E0,1.761715710E-1,8.073084831E0
1.629091901E1,2.013859272E0,-4.188336849E0,1.143529987E1
1.631062338E1,1.597209126E-1,3.783949852E0,8.063812256E-1
1.633033776E1,7.836494446E-1,-2.868396044E0,1.224138165E1
1.635005114E1,-2.847459018E-1,-1.368993640E0,1.440568924E1
1.636974505E1,-3.433700562E0,1.175175071E0,3.679862022E0
1.638943348E1,-7.256234884E-1,-3.118745327E0,1.252283764E1
1.640913968E1,1.115354419E0,9.463613629E-1,1.375633717E1
1.642884354E1,-6.981059909E-1,-4.426721856E-2,6.078966141E0
1.644856552E1,-1.226321578E0,-2.649153709E0,5.590231895E0
1.646824776E1,-1.193719387E0,-1.112662554E-1,2.367488670E1
1.648799005E1,-4.193122387E0,-3.686442375E0,3.760021687E0
1.650765619E1,-2.338984251E0,3.052045345E0,1.219352531E1
1.652736520E1,-1.830509305E-1,9.702895880E-1,1.537567997E1
1.654708083E1,-5.352445126E0,-8.108677864E-1,1.267717457E1
1.656677869E1,-2.254936218E0,-1.251446247E0,1.837269020E1
1.658650557E1,-1.493420482E0,-1.308874011E0,6.190232277E0
1.660621479E1,-4.037888348E-2,1.631605983E0,1.219232845E1
1.662589541E1,9.885348678E-1,1.339382529E0,1.173111248E1
1.664559203E1,-1.278963685E0,-1.296909928E0,5.560321808E0
1.666531145E1,1.710569143E0,-2.874378204E0,5.827420235E0
1.668500604E1,2.414956331E0,-7.483552694E-1,7.941479206E0
1.670471385E1,-2.410768747E0,1.881356835E-1,-2.124527454E0
1.672441270E1,-4.166502357E-1,-2.087438583E0,1.834248161E1
1.674411572E1,1.339382529E0,-2.028814554E0,1.163749313E1
1.676381802E1,-2.065903187E0,1.469791293E0,7.578368187E0
1.678349927E1,1.645065546E-1,-2.481656075E0,-8.009973764E-1
1.680322302E1,-2.083849430E0,-2.651546478E0,5.829813480E0
1.682293703E1,6.457630396E-1,-6.969096065E-1,1.616262054E1
1.684262750E1,-1.941177368E0,-1.332802176E0,5.495416164E0
1.686233093E1,-1.159023523E0,7.426723242E-1,9.452845573E0
1.688204343E1,-1.196112275E0,-1.435693651E-1,1.480439377E1
1.690172656E1,5.413761362E-2,-1.995314956E0,5.445167065E0
1.692145604E1,1.631605983E0,-1.432403445E0,1.230239868E1
1.694115843E1,-2.955136001E-1,1.450648755E-1,1.365464211E1
1.696085635E1,-1.251446247E0,-7.914260626E-1,1.324726391E1
1.698058041E1,-2.027618170E0,-1.435693540E-2,6.936493874E0
1.700027088E1,-2.570190668E0,-2.255235434E0,1.575554085E1
1.701998989E1,-1.343569875E0,-1.031007409E0,1.548604870E1
1.703970374E1,-3.369094372E0,1.797607988E-1,5.103890896E0
1.705937911E1,2.075773627E-1,1.773679852E-1,1.270469189E1
1.707910927E1,1.630409479E0,-6.514459848E-1,7.849056244E0
1.709877890E1,-1.438086390E0,2.395813614E-1,6.385546207E0
1.711847510E1,-1.258624673E0,1.582254022E-1,1.872234154E1
1.713817734E1,-4.441677034E-1,-1.292124271E0,3.588635683E0
1.715792609E1,1.503589988E0,1.528415442E0,6.767500877E0
1.717760375E1,-1.914258152E-1,8.973084688E-1,6.163911343E0
1.719732848E1,-9.532406926E-1,7.917252183E-1,1.363310719E1
1.721700968E1,-9.062815905E-1,-3.293122053E-1,4.234398842E0
1.723669817E1,-1.100399256E0,-9.053842425E-1,1.389302731E1
1.725641531E1,-1.044167995E0,-1.211964726E0,6.781857491E0
1.727613833E1,5.787639618E-1,-4.546362907E-2,5.918347836E0
1.729582484E1,4.854438901E-1,-9.711868763E-1,1.414935875E1
1.731553197E1,-1.070489049E0,-7.423732281E-1,9.329615593E0
1.733524364E1,-1.785643935E0,-3.388835192E-1,3.912265062E0
1.735495546E1,-1.357926846E0,-1.141376376E0,1.645364761E1
1.737464802E1,-1.863410592E0,-1.624128342E0,6.725626469E0
1.739437333E1,-1.766501307E0,-1.392921925E0,1.261137199E1
1.741407973E1,-2.737688303E0,-3.352942765E-1,1.119930744E1
1.743376296E1,-1.182951689E0,4.588237405E-1,1.108774185E1
1.745346817E1,-1.536491275E0,7.450651526E-1,1.298136234E1
1.747319374E1,3.107379198E0,6.457630396E-1,8.693424225E0
1.749286546E1,2.202892303E0,2.000997961E-1,6.039484501E0
1.751257802E1,1.246062398E0,-1.438385487E0,6.439384937E0
1.753227453E1,-3.318545818E0,-2.082653046E0,1.291675568E1
1.755200145E1,1.626820326E0,-1.196411345E-2,1.652333832E1
1.757169130E1,-2.879163742E0,-1.782652885E-1,-2.721835673E-2
1.759138848E1,-1.782054663E0,-7.782655358E-1,7.470691204E0
1.761109161E1,-2.153241158E0,-1.015454054E0,1.420559025E1
1.763081000E1,6.610172242E-2,-1.709073544E0,1.024337482E1
1.765053265E1,-1.045364380E0,-6.107679605E-1,6.591628075E0
1.767020739E1,-2.954537868E0,-1.488634825E0,1.151665497E1
1.768992994E1,-1.758724600E-1,-7.495517135E-1,5.253741264E0
1.770964250E1,1.693819284E0,-1.005882859E0,1.629332733E1
1.772931218E1,-1.866401732E-1,-8.374879509E-2,9.292527199E0
1.774902395E1,-1.918445587E0,-1.954637051E0,8.596514702E0
1.776872427E1,-1.858624935E0,-3.556332588E-1,1.614467430E1
1.778843557E1,-2.701795816E0,-1.736590981E0,1.241845036E1
1.780814635E1,-2.748456001E0,1.345962752E-2,1.149272728E1
1.782784234E1,-7.148557901E-1,-3.912863255E0,8.310273170E0
1.784754661E1,4.399802685E-1,-2.655135870E0,5.713462353E0
1.786721677E1,-8.787640929E-1,6.672984362E-1,7.902894974E0
1.788691718E1,-1.575972795E0,7.725825906E-1,9.995418549E0
1.790667036E1,-1.153041363E0,-1.179661512E0,4.940879822E0
1.792638255E1,1.908276081E-1,-2.123331070E0,8.880363464E0
1.794606328E1,-9.158528447E-1,-1.548455358E0,1.100279713E1
1.796576062E1,-1.481456280E0,5.847460628E-1,1.225932789E1
1.798547552E1,-1.042971611E0,-1.278963685E0,3.889234066E0
1.800520583E1,-1.393819213E0,-1.160518974E-1,9.510273933E0
1.802485994E1,4.576273263E-2,1.781157374E0,1.206281757E1
1.804461510E1,-1.390229940E0,1.295115203E-1,9.486345291E0
1.806428932E1,-1.947159410E0,-4.905286431E-2,6.538686752E0
1.808402458E1,-4.860421121E-1,9.272187948E-1,1.405693531E1
1.810373161E1,2.350948304E-1,1.785943031E0,8.519944191E0
1.812338755E1,-6.200401783E-1,-2.008475542E0,1.003370380E1
1.814311468E1,-1.556830287E0,-6.059823632E-1,3.704986811E0
1.816281468E1,9.502496719E-1,-3.352942765E-1,2.236840439E1
1.818251916E1,-1.695613980E0,-1.569990754E0,3.944568157E0
1.820221468E1,-2.037189484E0,-4.405784607E-1,1.270947742E1
1.822192786E1,3.595215976E-1,2.733799815E-1,1.013689423E1
1.824161395E1,-3.253939629E0,-1.425225019E0,5.296812057E0
1.826133900E1,-8.799605370E-1,-1.555334777E-1,1.096810055E1
1.828103614E1,9.840483218E-2,-2.187039852E0,1.047936630E1
1.830073500E1,-1.542473316E0,-1.857428551E0,1.551117325E1
1.832044880E1,-1.036989570E0,9.391828775E-1,5.987739563E0
1.834015098E1,-4.573282301E-1,1.717747569E0,8.107780457E0
1.835985526E1,-3.565305769E-1,-2.838485837E-1,4.915754795E0
1.837955500E1,-1.228714466E0,3.966103494E-1,1.787677765E1
1.839925885E1,-1.442872047E0,-7.004988194E-1,8.024031639E0
1.841896322E1,-2.856431961E0,-1.518545032E0,6.629913330E0
1.843867255E1,-1.550848126E0,1.189531922E0,9.280562401E0
1.845837057E1,-2.057827413E-1,4.181457460E-1,9.345169067E0
1.847809432E1,-2.775674164E-1,-3.747758567E-1,7.651648521E0
1.849778104E1,7.405785918E-1,4.097708687E-2,1.105663490E1
1.851748520E1,1.123729348E0,-2.140080690E0,8.197810173E0
1.853718562E1,-1.154237866E0,1.126122117E0,4.754239559E0
1.855689994E1,-8.811569214E-1,-1.351047516E0,1.369292736E1
1.857659708E1,-1.329213023E0,-2.481656075E0,8.511569023E0
1.859631833E1,-1.424925923E0,1.917249113E-1,7.887341499E0
1.861599838E1,-1.868196249E0,6.613163352E-1,8.450551987E0
1.863572447E1,-2.512463629E-1,-1.089930773E0,1.315633678E1
1.865541067E1,-3.409772217E-1,-1.722234130E0,9.072088242E0
1.867512833E1,-9.026923180E-1,-5.377869010E-1,6.306583405E0
1.869483385E1,-1.949552298E0,-1.770688742E-1,1.494826221E1
1.871453713E1,-2.727817893E-1,-7.148557901E-1,9.158229828E0
1.873423770E1,-8.380861282E-1,4.971089065E-1,7.712665558E0
1.875395786E1,-2.850450039E0,-1.449153185E0,1.432911968E1
1.877366921E1,-3.458825111E0,-3.123530865E0,1.353260803E1
1.879334234E1,-1.871785522E0,-2.117647976E-1,1.072373390E1
1.881302770E1,-1.583151340E0,-1.782054663E0,5.097908497E0
1.883275453E1,-5.503491879E0,-5.521438122E-1,8.158029556E0
1.885244411E1,2.925225794E-1,-1.295713425E0,1.313958740E1
1.887216739E1,-2.043171406E0,-2.165504545E-1,9.003892899E0
1.889186489E1,-5.721837282E-1,1.235294715E-1,1.107458115E1
1.891158739E1,-1.788036704E0,-1.586740494E0,4.781756878E0
1.893127270E1,-2.888735056E0,-6.275177598E-1,1.562363625E1
1.895097020E1,-8.344969153E-1,-2.110170364E0,7.050152779E0
1.897071296E1,-3.119941711E0,-1.131805062E0,5.560321808E0
1.899038130E1,-1.601097465E0,-6.969096065E-1,1.065075302E1
1.901009000E1,-1.410568953E0,-1.283749342E0,1.067109203E1
1.902981239E1,-1.289731383E0,-1.627119333E-1,9.316454887E0
1.904949666E1,7.836494446E-1,1.677966863E-1,1.080508995E1
1.906923140E1,-1.118345499E0,-2.202593327E0,5.568696499E0
1.908893776E1,-2.079063892E0,-4.716851711E-1,1.362114334E1
1.910869776E1,-1.726720691E0,-1.437189102E0,1.202453232E1
1.912845776E1,-1.899302959E0,-2.416750938E-1,7.409674644E0
1.914821776E1,-1.412961721E0,-1.639083475E-1,1.139701462E1
1.916797776E1,-2.477767944E0,-8.706883192E-1,1.081466103E1
1.918773776E1,-1.345962763E0,8.602197170E-1,1.540110397E1
1.920749776E1,-1.070489049E0,-1.419242978E0,3.144468069E0
1.922725776E1,-3.143869877E0,-1.351047516E0,1.152742290E1
1.924701776E1,-2.942573547E0,7.366902828E-1,9.739087105E0
1.926677776E1,-2.860021353E0,-2.684148788E0,3.363710403E0
1.928653776E1,-2.232204437E0,-1.574776411E0,6.578467846E0
1.930629776E1,-1.121934772E0,-8.886345029E-1,1.767069626E1
1.932605776E1,-2.203490496E0,-9.400802255E-1,9.755837440E0
1.934581776E1,-3.300599813E0,-3.771686554E-1,1.060648537E1
1.936555031E1,-3.203690529E0,-2.317448616E0,4.237987995E0
1.938531000E1,-2.440679073E0,-4.010969102E-1,9.784850121E0
1.940506864E1,-1.886142492E0,6.490531564E-2,7.961818218E0
1.942482890E1,1.151545867E-1,-9.317052960E-1,9.730711937E0
1.944459244E1,-1.102792144E0,-1.087537885E0,9.917651176E0
1.946331546E1,-2.657528639E0,2.419741899E-1,1.196830082E1
1.948300338E1,-9.520443082E-1,1.103689447E-1,8.894720078E0
1.950269427E1,-2.639582396E0,-1.716252089E0,8.039585114E0
1.952240359E1,-2.467000246E0,-1.329213023E0,9.878170013E0
1.954213609E1,-1.957927108E0,1.054038405E0,3.366103172E0
1.956180953E1,-2.207079887E0,8.087740541E-1,5.809474468E0
1.958151750E1,-1.963909149E0,-2.790629268E-1,8.936594009E0
1.960122885E1,-9.661021084E-2,3.547359705E-1,1.202812099E1
1.962092239E1,-4.345964193E-1,8.045866340E-2,1.229641628E1
1.964064880E1,-3.294617653E0,-2.675474882E0,7.355536938E0
1.966032557E1,-3.721138239E0,-1.304088354E0,7.462316513E0
1.968003114E1,-1.198505044E0,-3.269194067E-1,1.327268791E1
1.969973088E1,-3.011965513E0,1.086640596E0,2.941975355E0
1.971944052E1,-1.458425403E0,9.122636169E-2,1.736890221E1
1.973914958E1,-2.989233732E0,-2.848057270E0,7.698308468E0
1.975885187E1,-5.554937840E0,-2.266003132E0,1.191416264E1
1.977855677E1,-3.019144058E0,1.322333574E0,9.743872643E0
1.979826650E1,-5.243272781E-1,8.350951076E-1,1.173230839E1
1.981796864E1,1.450648785E0,-5.039882660E-1,9.493523598E0
1.983765786E1,-4.172783375E0,-1.698305845E0,7.816753387E0
1.985737968E1,-2.464607239E0,-1.215553880E0,1.579143333E1
1.987708505E1,-2.708974361E0,-1.550848126E0,5.338686466E0
1.989680760E1,-3.789333820E0,1.169192910E0,1.070100212E1
1.991648130E1,-6.669992954E-2,1.339382529E0,1.199581814E1
1.993618645E1,5.237290859E-1,-3.276970625E0,8.836095810E0
1.995589427E1,1.687837243E0,-1.977368832E0,8.422736168E0
1.997560177E1,-2.950948477E0,-2.500798702E0,-2.626421928E0
1.999530864E1,-2.602194622E-2,5.811567903E-1,2.468106842E1
2.001500197E1,-9.484550953E-1,3.343969584E-1,9.009874344E0
2.003472427E1,-3.346362352E0,1.700997829E0,5.957829475E0
2.005441531E1,-1.605883121E0,1.802692771E0,3.032902777E-1
2.007414291E1,-2.057528257E0,-2.747558594E0,1.988644981E1
2.009386421E1,-1.700399637E0,-2.472084999E0,4.169792652E0
2.011356864E1,-2.025225163E0,4.516452849E-1,1.698664856E1
2.013323104E1,-2.921038151E0,-2.398804665E0,1.920240164E0
2.015293484E1,-8.141579032E-1,-1.698904037E-1,1.190459156E1
2.017265984E1,-1.528116345E0,2.973082066E-1,6.372385979E0
2.019233947E1,-2.883949518E0,-5.700899959E-1,1.670878220E1
2.021206708E1,-3.031108141E0,-1.294517040E0,5.913562298E0
2.023173932E1,-2.948555708E0,-2.608176768E-1,1.306301689E1
2.025145083E1,-2.528017044E0,-2.240878344E0,7.288537979E0
2.027116348E1,-2.131705761E0,-2.692523718E0,1.184477139E1
2.029085885E1,-1.678864241E0,-9.915258884E-1,6.423831463E0
2.031056276E1,-1.776072621E0,1.717747569E0,9.875777245E0
2.033027598E1,-1.516152263E0,2.198106766E0,1.035374355E1
2.034997661E1,-2.453839540E0,6.050850153E-1,8.210970879E0
2.036965494E1,1.267597795E0,-3.342773199E0,1.352513123E1
2.038937781E1,-1.703988791E0,-2.464906454E0,5.815456390E0
2.040907833E1,-4.024129391E0,3.595215976E-1,3.936193228E0
2.042878942E1,-1.856232166E0,-1.290927768E0,1.388345623E1
2.044849057E1,-1.363908947E-1,6.302096844E-1,1.029123116E1
2.046819666E1,-2.901895761E0,4.336991161E-2,4.944468975E0
2.048791385E1,-2.379662037E0,-8.551349640E-1,8.262416840E0
2.050761312E1,-1.726720691E0,-1.116251707E0,1.431805229E1
2.052731343E1,-1.902892232E0,-4.657031000E-1,8.396414757E0
2.054701541E1,-2.791526794E0,-1.817947030E0,7.559226036E0
2.056675244E1,-3.237190008E0,-2.273181453E-2,1.235145092E1
2.058642958E1,-7.244270444E-1,-7.004988194E-1,1.280309677E1
2.060614687E1,-2.177169561E0,-2.748754978E0,1.194556904E1
2.062583135E1,-2.006979942E0,-8.898309469E-1,5.923133373E0
2.064556802E1,-1.249053478E0,-1.731805444E0,7.778468132E0
2.066523640E1,-1.479063511E0,-8.587242365E-1,8.148458481E0
2.068497744E1,-1.101595759E0,-3.259024382E0,1.473859119E1
2.070465760E1,-1.627418518E0,-4.238287210E-1,1.036451149E1
2.072435265E1,-3.910470486E0,-2.432603359E0,4.368396759E0
2.074406052E1,-3.722334623E0,2.744268417E0,2.022443581E1
2.076379557E1,-1.613061547E0,-3.499802113E0,2.301297188E0
2.078349546E1,-1.971087694E0,-1.674377680E0,9.806385040E0
2.080316817E1,8.644071966E-2,-1.512562990E0,9.329615593E0
2.082288395E1,-3.167798042E0,-2.625225544E0,6.487241268E0
2.084256703E1,-6.415755749E-1,8.255237937E-1,1.485105419E1
2.086226750E1,-1.858624935E0,-6.287141442E-1,9.355937004E0
2.088198729E1,-1.662114382E0,-1.083948612E0,1.097408295E1
2.090171874E1,-3.221636534E0,-1.761715651E0,9.238389015E0
2.092139557E1,-3.023929596E0,-2.081755698E-1,9.903294563E0
2.094113598E1,-2.093719840E-1,1.374078393E0,1.373121262E1
2.096082848E1,-7.076773047E-1,-1.609771490E0,4.711168766E0
2.098050526E1,-1.833500385E0,-5.617151260E-1,4.782953262E0
2.100024333E1,-1.955534339E0,3.439682424E-1,1.377787304E1
2.101991333E1,-1.766501307E0,1.420738459E0,1.123161030E1
2.103962270E1,-5.673980713E-1,-8.359923959E-1,8.800203323E0
2.105933505E1,-1.044167995E0,-1.162911773E0,7.607082367E0
2.107906062E1,-3.080460072E0,1.526022673E0,1.380688572E1
2.109872937E1,-3.041875839E0,9.332008362E-1,1.102792168E1
2.111843067E1,-2.551048040E0,-4.785645381E-2,4.447659016E0
2.113814088E1,-8.584251404E-1,-5.784648657E-1,1.457438374E1
2.115783286E1,-1.052542806E0,-6.502495408E-1,7.598707199E0
2.117756578E1,-3.900300860E-1,-9.089735150E-1,1.032742214E1
2.119724958E1,-1.294517040E0,-2.309073806E-1,1.217408371E1
2.121697317E1,-3.740280867E0,-1.128215909E0,1.179571819E1
2.123666302E1,-2.778366089E0,-9.747761488E-1,1.248574829E1
2.125636645E1,-2.771187782E0,-6.478567123E-1,1.155972576E1
2.127607796E1,-1.499402523E0,-7.519445419E-1,6.667002201E0
2.129578453E1,-1.034596682E0,-3.903291821E-1,5.912365437E0
2.131547770E1,-8.775677085E-1,2.901297510E-1,1.330977726E1
2.133518005E1,-1.803590059E0,1.426720470E-1,1.377906895E1
2.135488458E1,-1.087238789E0,-4.800600410E-1,6.353243351E0
2.137459552E1,-1.595115423E0,-6.215356588E-1,1.047817039E1
2.139431614E1,-2.734098911E0,-3.029911816E-1,6.674180508E0
2.141401885E1,-3.474378586E0,7.187440991E-1,1.411944866E1
2.143373744E1,-3.078067303E0,-4.262215197E-1,9.254241943E0
2.145340432E1,-3.031108141E0,5.138586760E-1,1.056072235E1
2.147310953E1,-2.554637194E0,-3.053839803E-1,7.412067413E0
2.149282265E1,-5.099703074E-1,-3.225524902E0,9.608678818E0
2.151250135E1,-8.823533356E-2,-2.705684185E0,8.342576027E0
2.153222291E1,-2.459821701E0,6.285944939E0,3.708575964E0
2.155196411E1,-5.889334679E-1,-2.585743904E0,2.534238434E1
2.157163281E1,-2.162812471E0,-3.166601658E0,1.683051586E0
2.159133614E1,-3.167798042E0,-1.314856052E0,1.133569813E1
2.161104057E1,-2.740081072E0,-4.286143482E-1,5.299204826E0
2.163076718E1,-2.667099953E0,-1.192822099E0,9.154640198E0
2.165045197E1,-1.235892892E0,-2.380858421E0,8.763114929E0
2.167018572E1,-2.171187401E0,-9.496514797E-1,4.685744762E0
2.168985921E1,-2.852842808E0,-1.138983607E0,1.461416435E1
2.170956510E1,-1.077667475E0,-8.970093727E-1,1.021585751E1
2.172927515E1,-3.146262646E0,1.643570065E0,7.195217609E0
2.174896312E1,-2.687438965E0,2.841476798E-1,9.498309135E0
2.176868192E1,-4.022933006E0,-1.589133382E0,1.325952721E1
2.178841104E1,-2.588136673E0,-2.390429735E0,1.138744259E1
2.180808609E1,1.332203984E0,2.829512656E-1,8.893523216E0
2.182779984E1,2.919243574E0,5.512465239E-1,5.793920994E0
2.184749927E1,-2.538784742E0,3.379862010E-1,4.053441525E0
2.186719281E1,-1.217946768E0,-3.173480928E-1,1.496860123E1
2.188689494E1,-1.996212244E0,-2.720041037E0,1.689691734E1
2.190661338E1,-3.084049225E0,-1.060917735E0,1.109372377E0
2.192631838E1,-5.302196026E0,1.414756328E-1,2.783750057E0
2.194601692E1,-3.553341627E0,-3.891327679E-1,2.158505440E1
2.196573479E1,-2.134098768E0,-2.443371058E0,5.361418247E0
2.198542937E1,-1.501795292E0,-4.357928336E-1,4.903790951E0
2.200512734E1,-8.105686903E-1,-3.915255964E-1,7.667201996E0
2.202483552E1,-1.591526151E0,1.154836059E0,1.113948631E1
2.204454692E1,-2.138884306E0,-1.762912035E0,2.004467583E1
2.206424255E1,-3.529413462E0,-3.882952929E0,4.574478626E0
2.208393791E1,-2.506481647E0,-3.855435550E-1,1.681915092E1
2.210365156E1,-2.129312992E0,-4.226323068E-1,2.116750717E0
2.212336401E1,-3.942773581E0,-2.344966173E0,1.611595917E1
2.214307395E1,-1.555633783E0,-2.166700840E0,2.501097918E0
2.216276416E1,9.765707254E-1,2.063809633E0,9.317651749E0
2.218248312E1,1.461416483E0,3.237788200E0,1.044826031E1
2.220217223E1,-5.558526993E0,-3.527319670E0,1.756331801E0
2.222188468E1,3.501297712E0,-1.742573142E0,2.148665047E1
2.224157890E1,-3.716352701E0,-2.696112871E0,1.049611664E1
2.226130598E1,-5.384748459E0,8.195417523E-1,4.635495663E0
2.228098666E1,-1.378265858E0,2.057827473E0,1.230718422E1
2.230070400E1,-3.237190008E0,-5.452046394E0,-1.526919961E0
2.232040260E1,-1.939980984E0,-9.592227936E-1,2.138375854E1
2.234011234E1,-3.996013701E-1,7.806584239E-2,6.730412006E0
2.235981640E1,-2.175973177E0,-3.223132133E0,1.084816074E1
2.237950838E1,-2.046760559E0,9.272187948E-1,1.028644562E1
2.239922281E1,-2.443071842E0,-1.427617788E0,1.689452362E1
2.241892656E1,-2.735295296E0,-1.869392633E0,1.212144089E1
2.243863281E1,-1.905285001E0,-4.429712892E-1,7.402495861E0
2.245833854E1,-1.202094316E0,-5.509474277E-1,1.251087284E1
2.247805781E1,-5.589633465E0,1.414756328E-1,4.926223755E-1
2.249773760E1,-1.072433186E1,-6.756433964E0,-2.548356056E-1
2.251745000E1,-1.107996559E1,-3.597908020E0,-2.857628345E0
2.253715119E1,-4.736891747E0,2.983849764E0,1.097647572E1
2.255684265E1,1.674617004E1,2.438884497E0,3.420569992E1
2.257654874E1,8.862417221E0,4.444667995E-1,4.313362122E0
2.259625973E1,-7.397111893E0,-2.886342406E-1,6.490830421E0
2.261597010E1,-4.048057556E0,4.660021961E-1,4.525425911E0
2.263569973E1,-1.826321840E0,-1.360618830E0,5.941079617E0
2.265535822E1,4.615156651E-1,1.641177177E0,7.053741932E0
2.267506437E1,-2.337787628E0,9.714859724E-1,1.844327927E1
2.269480515E1,-9.158528447E-1,1.067797095E-1,7.035795689E0
2.271448552E1,5.596213937E-1,-1.907976985E0,9.768997192E0
2.273418442E1,-2.841476910E-2,1.579861164E0,1.495424461E1
2.275389650E1,-1.228714466E0,-3.430111170E0,5.235795021E0
2.277359624E1,-3.458825111E0,7.941179872E-1,1.732343864E1
2.279330239E1,-2.455035925E0,-7.040880919E-1,1.130698395E1
2.281300765E1,-1.592722535E0,-2.126920223E0,6.380760670E0
2.283273531E1,-6.068796515E-1,2.929712296E0,1.129023457E1
2.285241505E1,-3.833600998E0,1.665105462E0,8.497212410E0
2.287214427E1,6.445665956E-1,-1.328016520E0,1.627538109E1
2.289184203E1,-1.412961721E0,-2.558226585E0,1.123519993E1
2.291152723E1,-8.691928387E-1,-9.125627279E-1,6.826124668E0
2.293123604E1,-2.371287346E0,1.007378340E0,9.802796364E0
2.295096291E1,-2.707777977E0,1.218245864E0,1.632802391E1
2.297065885E1,-2.461018085E0,-4.597210586E-1,4.633102894E0
2.299034150E1,2.545664072E0,-2.885145903E0,1.469432354E1
2.301004312E1,-3.038884699E-1,-7.651050687E-1,5.347061157E0
2.302975078E1,-4.900799751E0,6.302096844E-1,3.175574780E0
2.304945557E1,-1.626222134E0,-7.938188910E-1,1.830539322E1
2.306915557E1,-2.186740875E0,9.774680734E-1,5.100301266E0
2.308886364E1,-1.435693651E-1,3.877269983E0,9.326025963E0
2.310857312E1,-1.750947952E0,1.098604679E0,8.588139534E0
2.312829526E1,-1.658525229E0,-2.646760941E0,1.494586945E1
2.314796994E1,-3.004786968E0,-3.819543123E0,2.054537296E0
2.316768614E1,-6.777670383E-1,7.737790346E-1,1.243280697E1
2.318737729E1,-7.471588850E-1,-7.178468257E-2,1.090947628E1
2.320710609E1,-2.093719784E-3,7.666005492E-1,1.319043517E0
2.322680197E1,-1.688435435E0,-1.008275628E0,1.285813141E1
2.324649500E1,-5.350949764E-1,-1.223928809E0,1.273370457E1
2.326620416E1,-1.761715651E0,-5.623133108E-2,7.816753387E0
2.328590687E1,-3.096013308E0,-1.209571838E0,4.406682014E0
2.330558604E1,-1.743769526E0,2.144567221E-1,1.358046532E1
2.332531796E1,-1.106381416E0,6.002993584E-1,6.224927902E0
2.334502567E1,-5.961119533E-1,1.396810174E0,1.145444202E1
2.336473015E1,-2.410768747E0,-2.055135489E0,1.375274849E1
2.338441776E1,-3.448057413E0,-8.539385796E-1,9.045766830E0
2.340413515E1,-1.844268084E0,-8.635098934E-1,7.825128078E0
2.342381562E1,-1.332802176E0,4.205385745E-1,6.797410965E0
2.344354900E1,-4.753641129E0,2.156531364E-1,1.376112270E1
2.346324187E1,-9.182456881E-2,-8.240283132E-1,2.017987061E1
2.348295260E1,-3.570091486E0,-6.203392744E-1,2.303091809E-2
2.350267427E1,-1.683649778E0,-4.872384965E-1,9.522537231E0
2.352236192E1,-4.181158543E0,-2.353341103E0,9.455238342E0
2.354204369E1,-4.085146427E0,3.726821244E-1,8.927022934E0
2.356176979E1,7.262216806E-1,-3.556332588E-1,7.865806103E0
2.358147026E1,-3.330509901E0,1.340578914E0,8.193024635E0
2.360117208E1,-2.685046196E0,-8.300103545E-1,1.733181190E1
2.362088802E1,2.410170555E0,-2.088634968E0,7.700701237E0
2.364056109E1,-1.176969647E0,1.641177177E0,2.933600664E0
2.366031041E1,-1.168594718E0,-3.954737663E0,1.572981834E0
2.367999010E1,-5.475675583E0,-2.469691992E0,2.304856491E1
2.369968822E1,6.735795736E-1,2.546561480E0,1.083739281E1
2.371940932E1,-5.243272781E-1,-8.479565382E-1,1.063908815E0
2.373911130E1,-4.687838554E0,-3.043371201E0,3.115754128E0
2.375879005E1,-2.160419703E0,-1.819143414E0,2.354447746E1
2.377850822E1,-1.603490233E0,2.817548811E-1,7.096812725E0
2.379821427E1,1.205384374E0,1.517647743E0,9.572786331E0
2.381792588E1,-1.380658627E0,-3.401397467E0,7.495816231E0
2.383762010E1,1.305882931E0,-1.470688581E0,1.447627831E1
2.385733307E1,2.987439156E0,3.425624609E0,1.587398529E1
2.387705067E1,-1.130309582E0,2.889333367E-1,4.112065792E0
2.389674166E1,-3.385843992E0,-3.678067446E0,1.182203960E1
2.391643822E1,-4.121038914E0,1.952543259E0,1.479601860E1
2.393615307E1,-7.172485590E-1,-8.494520187E-2,8.013263702E0
2.395584624E1,-4.866104126E0,-2.928216696E0,3.957728624E0
2.397556281E1,-2.856431961E0,-2.046760559E0,1.326072407E1
2.399525510E1,-1.293320656E0,1.588235974E0,1.481755447E1
2.401494869E1,-4.109074593E0,-2.333002090E-1,1.051167011E1
2.403466072E1,-2.106581211E0,2.479562461E-1,8.819346428E0
2.405436802E1,-2.970091105E0,7.857431173E-1,1.777119446E1
2.407408057E1,-3.228815079E0,-9.113663435E-1,6.637091637E0
2.409379151E1,-1.776072621E0,4.372883439E-1,1.090708351E1
2.411349859E1,-3.297010422E0,1.824527234E-2,1.874776483E0
2.413320828E1,-2.882753134E0,8.644071966E-2,2.741875648E0
2.415289953E1,-1.221805191E1,-6.386144638E0,1.684248090E0
2.417259447E1,-9.407979965E0,2.375175476E0,4.999803066E0
2.419230291E1,1.523091412E1,2.629113913E0,2.143998909E1
2.421201614E1,7.782057285E0,-3.364906907E-1,1.536491203E1
2.423170760E1,-3.876671791E0,1.122532964E0,1.093819022E0
2.425139552E1,-2.714956284E0,-1.540080428E0,2.858226538E0
2.427111895E1,-1.689631939E0,4.348955154E-1,1.144367409E1
2.429081979E1,3.236292601E-1,-9.029914737E-1,7.178467751E0
2.431053531E1,-6.092724800E-1,7.546364665E-1,9.119944572E0
2.433023437E1,-9.146564603E-1,-2.467299223E0,1.448584938E1
2.434993328E1,-9.951151013E-1,6.337988973E-1,6.672984123E0
2.436963026E1,-1.042971611E0,3.655036688E-1,1.087119102E1
2.438934458E1,9.960123897E-2,5.596213937E-1,1.605613899E1
2.440904020E1,4.435695112E-1,-8.491529226E-1,1.168086243E1
2.442876510E1,-1.107577801E0,4.959124923E-1,8.025228500E0
2.444845177E1,-2.628814697E0,6.433702111E-1,1.848156357E1
2.446815812E1,-2.922234535E0,-1.608574986E0,1.433270836E1
2.448785739E1,-3.927220106E0,5.246263742E-1,9.155837059E0
2.450757161E1,-2.568994284E0,3.020938635E0,8.267202377E0
2.452727510E1,-8.679963946E-1,1.175474152E-1,1.134168053E1
2.454695953E1,-2.189133644E0,2.288136631E-1,1.277079391E1
2.456667307E1,-1.558026671E0,1.645962834E0,9.575179100E0
2.458638921E1,-4.153641224E0,-1.566401482E0,1.226411343E1
2.460607135E1,-1.737488389E0,-2.651546478E0,1.012612629E1
2.462579796E1,2.135594189E-1,3.521636724E0,7.349554539E0
2.464547567E1,-1.310070395E0,3.551547050E0,6.032006741E0
2.466520067E1,-1.537687659E0,-1.615155339E-1,7.366304398E0
2.468490385E1,5.380859971E-1,-3.011068106E0,8.327022552E0
2.470461385E1,5.294119939E-2,-1.489831209E0,8.195417404E0
2.472431302E1,3.260220960E-2,1.441077471E0,3.920639992E0
2.474404286E1,-1.708774447E0,-2.736790895E0,1.770539284E1
2.476372869E1,8.673981763E-3,-2.946461916E0,5.218746185E0
2.478342291E1,-3.146561682E-1,2.243570328E0,8.549854279E0
2.480314984E1,-1.001994461E-1,2.324029058E-1,8.977571487E0
2.482283515E1,-7.112665176E-1,-2.803789854E0,9.323633194E0
2.484254307E1,-1.308874011E0,-1.326820135E0,9.673284531E0
2.486224609E1,2.063809484E-1,-4.082753658E-1,1.323290730E1
2.488193458E1,-3.027518749E0,-2.153540403E-2,1.154297638E1
2.490165088E1,-1.053739309E0,1.541576028E0,1.904806519E1
2.492138109E1,-1.131505966E0,-3.168994427E0,2.981456995E0
2.494106838E1,-1.895713687E0,-2.394019127E0,1.561047554E1
2.496076869E1,-6.068796515E-1,-6.143572330E-1,2.437688112E0
2.498046630E1,4.351946115E-1,-1.088734269E-1,2.511596298E1
2.500018005E1,-2.131705761E0,1.242174029E0,1.927418590E0
2.501987661E1,-1.721935034E0,7.965108156E-1,1.238255787E1
2.503957958E1,-1.322034478E0,-1.313659668E0,8.735597610E0
2.505928328E1,-1.445264935E0,-3.317050338E-1,1.359123230E1
2.507898666E1,-1.910070658E0,-5.742774159E-2,8.803792953E0
2.509869161E1,-4.585246444E-1,2.422732860E-2,6.952046871E0
2.511838692E1,-9.759725332E-1,-5.653043389E-1,8.842078209E0
2.513808994E1,-1.073779166E-1,-4.166502357E-1,8.283951759E0
2.515780885E1,-2.500499785E-1,-8.443672657E-1,1.205922794E1
2.517751067E1,-4.277170449E-2,-1.624128342E0,1.071775150E1
2.519721385E1,-1.239482164E0,-8.850452900E-1,5.645267010E0
2.521691953E1,-4.070789516E-1,-5.952146053E-1,6.362814426E0
2.523661963E1,-1.447657645E-1,1.127617657E-1,9.560821533E0
2.525632380E1,-3.421736360E-1,-4.836492836E-1,9.234800339E0
2.527603552E1,-8.476574421E-1,-4.621138871E-1,1.147478104E1
2.529573067E1,-1.190130115E0,-3.915255964E-1,8.779864311E0
2.531544447E1,-7.387840152E-1,-3.687937856E-1,8.384450912E0
2.533515796E1,-6.236293912E-1,3.200400174E-1,9.372686386E0
2.535486421E1,4.375874400E-1,-1.615155339E-1,1.001336479E1
2.537455526E1,-7.040880919E-1,-2.344966233E-1,9.742676735E0
2.539425500E1,-7.196413875E-1,-1.469492197E0,9.837491989E0
2.541397437E1,-1.330409408E0,-3.855435550E-1,1.209990597E1
2.543364682E1,-8.321040869E-1,-4.307080805E-2,1.026371384E1
2.545336833E1,-1.359123230E0,1.402792335E-1,1.052961636E1
2.547306598E1,-1.025922745E-1,-4.067798331E-2,1.191057396E1
2.549277682E1,-2.392822653E-1,9.481559694E-2,9.585947037E0
2.551247901E1,1.194317579E0,-1.140179992E0,9.900901794E0
2.553218145E1,-9.541380405E-2,4.624129832E-1,1.191775227E1
2.555190239E1,-7.112665176E-1,-4.812564552E-1,1.068664455E1
2.557159124E1,-6.921239495E-1,-2.512463741E-2,9.092427254E0
2.559129458E1,-8.703892678E-2,1.283151209E-1,1.170598793E1
2.561099906E1,1.908276081E-1,-7.298108935E-2,9.164211273E0
2.563071635E1,-6.933203340E-1,-3.999004960E-1,5.988935947E0
2.565041692E1,-1.125523925E0,2.000997961E-1,1.325444317E1
2.567012651E1,-1.828714728E0,-1.459621787E-1,9.437292099E0
2.568982239E1,-9.807581902E-1,-1.399801224E-1,1.233470154E1
2.570952187E1,-3.481557071E-1,-8.374879509E-2,7.943871975E0
2.572923593E1,-7.519445419E-1,3.774677813E-1,1.091785145E1
2.574895651E1,-1.175773263E0,-2.081755698E-1,1.036570740E1
2.576862947E1,-1.664507270E0,-5.449653864E-1,6.344868183E0
2.578835364E1,-1.792822361E0,1.482951880E0,6.814160824E0
2.580804770E1,-6.104688644E-1,5.090730190E-1,1.139581776E1
2.582774552E1,-5.315057039E-1,-9.077770710E-1,1.284856033E1
2.584745401E1,9.921240807E-1,1.322333574E0,5.823831081E0
2.586716552E1,-2.069791555E-1,9.774680734E-1,1.405334663E1
2.588686687E1,4.648656368E0,-9.053842425E-1,5.571089268E0
2.590656057E1,4.688436985E0,1.482951880E0,9.479166985E0
2.592626005E1,1.953739643E0,5.548357368E-1,1.030798054E1
2.594599609E1,-2.494517565E0,-1.316052489E-2,1.667049599E1
2.596567463E1,5.404788256E-1,-1.159322619E0,4.848755836E0
2.598538416E1,-4.119842529E0,5.608177781E-1,1.063160992E1
2.600510322E1,-6.013462543E0,-2.107777596E0,9.663713455E0
2.602480911E1,-1.325623751E0,-2.190629244E0,1.602981758E1
2.604450109E1,-1.400997639E0,1.717747569E0,6.757929325E0
2.606422312E1,-1.417747378E0,1.689931005E-1,1.612911987E1
2.608389906E1,-5.036293507E0,-3.927220106E-1,6.446563244E0
2.610359364E1,-5.271089077E0,-1.004985496E-1,1.173350525E1
2.612332390E1,-1.023828983E0,-1.736590981E0,1.047817039E1
2.614302416E1,1.335793257E0,-7.292127013E-1,7.538887024E0
2.616271932E1,-1.850250125E0,7.633403301E0,-1.001097202E0
2.618242531E1,-1.396211982E0,-1.164108157E0,2.153211403E1
2.620212119E1,-2.705385208E0,-4.552644253E0,8.266005516E0
2.622183307E1,-2.397608280E0,2.012363911E0,1.382602787E1
2.624153114E1,-6.104688644E-1,-2.171486616E0,4.220340848E-1
2.626123406E1,-2.922234535E0,-4.310071766E-1,7.863413334E0
2.628093635E1,-8.165507317E-1,-5.605186820E-1,9.163015366E0
2.630065135E1,-3.050848842E-1,-1.755733609E0,1.627538109E1
2.632035729E1,1.148854017E0,1.551147223E0,9.859027863E0
2.634005864E1,1.566999674E0,-2.154736757E0,7.747361660E0
2.635976343E1,2.044965982E0,-6.562315822E-1,1.012014389E1
2.637947364E1,4.086941242E0,2.431705952E0,1.224975681E1
2.639917062E1,-2.281556368E0,-6.811468601E0,-1.204786181E0
2.641886968E1,-1.136291623E0,-1.770090580E0,2.412892532E1
2.643857859E1,-2.496910334E0,-2.552244425E0,1.338275814E1
2.645828848E1,-4.372584343E0,1.455434322E0,3.699004650E0
2.647798921E1,-1.656132340E0,1.235294715E-1,1.633041573E1
2.649768958E1,-2.199901342E0,-1.587936878E0,9.660123825E0
2.651739739E1,-3.694817305E0,1.123729348E0,7.183253765E0
2.653712135E1,-2.049153566E0,-5.700899959E-1,1.888056755E1
2.655679223E1,-2.536391973E0,1.593021631E0,7.223931789E0
2.657650125E1,-1.550848126E0,-1.765304923E0,7.767700672E0
2.659621911E1,-3.958326817E0,-2.584547520E0,2.587538481E0
2.661591468E1,-9.436694384E-1,-2.692523718E0,1.455883026E1
2.663563260E1,-1.360319614E0,-4.692923427E-1,-8.919246197E-1
2.665531635E1,-3.466003656E0,-5.988038778E-1,-1.142273664E0
2.667502536E1,1.884347796E-1,1.431506157E0,7.463512897E0
2.669473786E1,4.979464054E0,-1.470688581E0,3.143271637E1
2.671442911E1,-1.411765367E-1,-5.784648657E-1,4.122833252E0
2.673414958E1,-3.993022680E0,-1.673181176E0,7.062117100E0
2.675387145E1,-2.262114763E0,1.195513964E0,5.440680385E-1
2.677353817E1,-1.209571838E0,1.415952802E0,1.064237785E1
2.679322286E1,1.587338686E0,4.408775866E-1,1.090229797E1
2.681295739E1,-3.553341627E-1,-7.794619799E-1,9.001500130E0
2.683265656E1,-1.275374413E0,8.554341197E-1,1.310010624E1
2.685238083E1,-2.074278116E0,8.458628058E-1,1.275524044E1
2.687206906E1,-2.269293070E0,-5.147559643E-1,9.250652313E0
2.689180322E1,-2.128116608E0,1.474576890E-1,1.569691658E1
2.691146109E1,-2.869592667E0,7.342974544E-1,1.197069359E1
2.693118588E1,-3.498306751E0,-4.800600410E-1,9.772586823E0
2.695088739E1,-2.244168520E0,2.060818523E-1,9.055337906E0
2.697058479E1,-1.932802439E0,-4.453641176E-1,9.863813400E0
2.699028624E1,-2.407179594E0,-8.886345029E-1,1.284975624E1
2.700997880E1,-2.735295296E0,-8.156534433E-1,1.048176003E1
2.702969781E1,-2.168794632E0,4.384847581E-1,1.044586754E1
2.704940572E1,-1.523330688E0,-3.987040818E-1,8.507980347E0
2.706910177E1,-1.141077280E0,-1.167697430E0,6.820142746E0
2.708881718E1,-2.021636009E0,1.115653589E-1,6.802196503E0
2.710849984E1,-5.721837282E-1,1.648355722E0,1.214776230E1
2.712820093E1,-1.810768485E0,2.961117923E-1,6.637091637E0
2.714791781E1,-1.633400559E0,2.422732860E-2,9.842277527E0
2.716762656E1,-1.308874011E0,2.551347017E-1,7.727022648E0
2.718732968E1,-2.537588358E0,-3.317050338E-1,6.634698868E0
2.720703854E1,-1.740180254E0,6.385845542E-1,1.236221886E1
2.722674968E1,-2.523231506E0,4.731806815E-1,7.213163853E0
2.724642838E1,-2.004587173E0,2.793620527E-1,8.842078209E0
2.726614093E1,-2.572583437E0,-6.699903309E-2,8.630014420E0
2.728585036E1,-2.199901342E0,6.849455088E-2,1.031785107E1
2.730554937E1,-2.262114763E0,-5.982056633E-2,8.880363464E0
2.732529078E1,-1.815554142E0,-1.603191197E-1,1.055593681E1
2.734496484E1,-1.602293849E0,-4.905286431E-2,9.924830437E0
2.736466885E1,-1.831107497E0,-1.986042857E-1,1.068784142E1
2.738437937E1,-2.348555326E0,-7.316055298E-1,1.093460083E1
2.740407203E1,-1.802393675E0,-1.353440285E0,1.091306591E1
2.742377864E1,-1.214357495E0,-1.615155339E-1,1.032263660E1
2.744349635E1,-1.693221092E0,-5.503492057E-2,1.061964607E1
2.746318515E1,-2.756830692E0,-7.603194118E-1,1.121725368E1
2.748291098E1,-2.321038008E0,-1.846660852E0,1.227248859E1
2.750260656E1,-1.381855130E0,-1.270588875E0,1.090708351E1
2.752230682E1,-9.448658228E-1,1.266102314E0,6.637091637E0
2.754201890E1,-2.669492722E0,-6.526423693E-1,1.495185184E1
2.756171208E1,-1.977069736E0,-2.105384827E0,8.814560890E0
2.758139609E1,-2.125723839E0,3.978067636E-2,8.249256134E0
2.760111848E1,-1.339980721E0,-3.664009571E-1,9.345169067E0
2.762084026E1,-3.028715372E0,-1.770688742E-1,7.125825882E0
2.764052953E1,-3.142673492E0,-5.533402562E-1,1.301037502E1
2.766022973E1,-2.187937260E0,-1.185643673E0,4.417449474E0
2.767995052E1,-2.954537868E0,6.828517914E-1,4.592424870E0
2.769962755E1,-1.275374413E0,-6.275177598E-1,1.212622738E1
2.771934822E1,-1.785643935E0,1.977069676E-1,4.945665359E0
2.773904776E1,-1.735095501E0,2.000997961E-1,1.224736404E1
2.775875125E1,-1.760519266E0,2.395813614E-1,5.920740604E0
2.777845177E1,-2.574976206E0,1.737787426E-1,6.938886642E0
2.779817843E1,-2.052742720E0,-2.008475542E0,9.299705505E0
2.781787302E1,-1.850250125E0,-8.168498278E-1,6.874280453E0
2.783757567E1,-1.660917997E0,-6.580262631E-2,1.121246815E1
2.785729375E1,-2.299502611E0,-5.736792088E-1,7.831110477E0
2.787699505E1,-2.520838737E0,-2.033899277E-1,9.903294563E0
2.789669447E1,-2.174776793E0,-1.379761338E0,1.018834019E1
2.791641192E1,-1.798804402E0,-6.227321029E-1,1.094417286E1
2.793609395E1,-1.233500123E0,7.328019291E-2,9.771389961E0
2.795579989E1,-1.631007791E0,6.361917257E-1,8.014460564E0
2.797550843E1,-2.209472656E0,-1.998006850E-1,1.484746456E1
2.799520864E1,-2.831307411E0,-9.939187169E-1,1.024337482E1
2.801495161E1,-2.050349951E0,-1.399801224E-1,9.923633575E0
2.803460479E1,-1.839482427E0,2.697907388E-1,1.131416321E1
2.805431380E1,-2.807080030E0,3.068794906E-1,1.449063492E1
2.807405046E1,-2.007279158E0,-1.256231904E0,8.304290771E0
2.809372651E1,-2.125723839E0,-3.161516786E-1,1.110449123E1
2.811342661E1,-2.965305567E0,-5.605186820E-1,1.154417324E1
2.813314906E1,-2.269293070E0,-1.398903966E0,8.662317276E0
2.815283541E1,-2.428714991E0,3.212364316E-1,1.102672482E1
2.817256921E1,-2.665903568E0,-9.317052960E-1,9.615857124E0
2.819225067E1,-2.861217737E0,-8.374879509E-2,9.135498047E0
2.821195255E1,-2.844467878E0,-2.368894368E-1,5.027320385E0
2.823166234E1,-4.342673779E0,-7.663014531E-1,9.393025398E0
2.825136328E1,-2.142473459E0,-5.063810945E-1,1.755344772E1
2.827108109E1,-6.619145870E-1,-1.053739309E0,5.369792938E0
2.829077135E1,-7.316055298E-1,8.829515576E-1,4.540979385E0
2.831047265E1,-1.430907965E0,-9.451649338E-2,1.283779240E1
2.833018270E1,1.237687469E0,9.601201117E-2,1.043868923E1
2.834990604E1,2.456830740E0,1.322333574E0,8.440681458E0
2.836960739E1,5.404788256E-1,-7.914260626E-1,6.967600346E0
2.838929015E1,1.884347796E-1,4.815555736E-2,1.090708351E1
2.840899854E1,2.183749676E0,-1.823929071E0,1.709582138E1
2.842872614E1,-1.779661894E0,-1.210768223E0,4.490729809E0
2.844840244E1,6.326025128E-1,-2.092224360E0,5.338686466E0
2.846810354E1,-4.671986103E0,2.762214661E0,1.923021889E1
2.848778906E1,-1.243071318E0,-2.010868311E0,9.861420631E0
2.850750687E1,-2.126920223E0,-1.064507008E0,1.215254784E1
2.852722677E1,-2.644068897E-1,1.498505175E-1,9.234800339E0
2.854692354E1,-3.241975546E0,-1.159322619E0,1.772453499E1
2.856661854E1,-3.897309780E0,-2.474477768E0,6.850352287E0
2.858634458E1,-1.963909149E0,2.274677038E0,1.549083424E1
2.860603697E1,-1.723131418E0,-1.755733609E0,1.139701462E1
2.862574859E1,-3.798605874E-2,-2.930609465E0,2.540579557E0
2.864545885E1,-1.332802176E0,7.331010103E-1,6.251249313E0
2.866514682E1,9.870393202E-3,-4.905286431E-2,1.374317646E1
2.868486244E1,-2.786741018E0,-1.076770201E-2,2.738286495E0
2.870456546E1,5.751747489E-1,-3.149552941E-1,1.020628548E1
2.872426291E1,1.205384374E0,-1.738983870E0,4.847559452E0
2.874397989E1,-5.506483316E-1,-9.580263495E-1,1.274327564E1
2.876367307E1,-2.484946251E0,1.146461129E0,4.902594566E0
2.878337302E1,-2.762812853E0,2.823231697E0,1.175982571E1
2.880308739E1,-1.766501307E0,-8.814560175E-1,9.820742607E0
2.882278713E1,-1.647757530E0,-3.436691463E-1,3.528815269E0
2.884248874E1,-2.877967358E0,-1.171286702E0,1.203888893E1
2.886219250E1,-3.708875179E-1,-1.124626622E-1,1.166889858E1
2.888189822E1,-2.177468538E-1,-8.252246976E-1,1.083260727E1
2.890159192E1,-4.489533603E-1,3.508476257E0,3.788735628E0
2.892131239E1,-1.719542146E0,-9.891330600E-1,1.304507065E1
2.894101598E1,-1.693221092E0,-1.911566138E0,1.447986698E1
2.896070786E1,-1.386640668E0,-9.332008660E-2,5.549553871E0
2.898041145E1,-1.656132340E0,-4.381856322E-1,9.728319168E0
2.900011822E1,-1.580758452E0,4.540380836E-1,1.426301765E1
2.901982020E1,2.991028305E-4,6.397809386E-1,9.406186104E0
2.903952645E1,-1.967498422E0,-1.842473447E-1,1.382602787E1
2.905924375E1,-7.136593461E-1,-1.040877849E-1,1.048654556E1
2.907896046E1,-1.057328463E0,-9.317052960E-1,1.282223892E1
2.909863348E1,-6.813562512E-1,4.576273263E-2,1.100518990E1
2.911835453E1,-4.896313250E-1,-1.330409408E0,1.220668602E1
2.913805864E1,-2.931207716E-1,7.686942816E-2,1.091665554E1
2.915774458E1,-1.249053478E0,5.222335458E-1,8.898308754E0
2.917745119E1,-1.289133132E-1,-7.495517135E-1,1.351316643E1
2.919715546E1,-1.328016520E0,-1.211964726E0,9.388239861E0
2.921686286E1,-9.424729943E-1,-7.375875711E-1,8.739186287E0
2.923657640E1,-1.672882080E0,-1.813161373E0,1.117059326E1
2.925629598E1,-1.105184913E0,-9.436694384E-1,8.086244583E0
2.927599234E1,-1.374676585E0,-5.856433511E-1,9.800403595E0
2.929569135E1,-7.830511928E-1,7.989036441E-1,8.380861282E0
2.931539203E1,-8.512466550E-1,-5.856433511E-1,1.225454235E1
2.933508895E1,-4.812564552E-1,-5.904290080E-1,8.708976746E0
2.935480005E1,-6.320042610E-1,-5.503492057E-2,7.985746384E0
2.937451442E1,-9.900303930E-2,-1.986042857E-1,1.084337521E1
2.939420416E1,-6.693921089E-1,-5.350949764E-1,9.921240807E0
2.941393640E1,-3.559323773E-2,2.805584669E-1,1.054038334E1
2.943361489E1,-6.248258352E-1,-7.555337548E-1,1.083260727E1
2.945331843E1,3.128615618E-1,-1.842473447E-1,1.000498962E1
2.947302458E1,-8.751748800E-1,-1.722832322E-1,7.991728306E0
2.949273421E1,-7.531409264E-1,-7.890332937E-1,1.242084312E1
2.951243218E1,-1.106381416E0,-2.572284341E-1,9.326025963E0
2.953213822E1,-1.422533035E0,-5.219344497E-1,9.894919395E0
2.955184515E1,-1.262213945E0,-6.203392744E-1,1.048654556E1
2.957153588E1,-1.706381679E0,-1.245464206E0,8.522336960E0
2.959124687E1,-1.837089539E0,-2.344966233E-1,9.139086723E0
2.961095130E1,-1.960319996E0,-2.934198678E-1,9.578767776E0
2.963066697E1,-9.819545746E-1,-1.902294010E-1,9.391828537E0
2.965036177E1,-1.580758452E0,-1.340279818E0,6.095715523E0
2.967006500E1,-1.048953652E0,-1.878365725E-1,9.204889297E0
2.968976854E1,-5.554339290E-1,1.893320978E-1,9.848259926E0
2.970947114E1,-8.368897438E-1,-1.059721351E0,7.170093060E0
2.972917708E1,-1.068096161E0,-7.698906660E-1,7.603493214E0
2.974890510E1,-3.637090325E-1,-1.627119333E-1,9.721140862E0
2.976858400E1,-1.312463164E0,-6.143572330E-1,6.777071953E0
2.978828500E1,-1.115952611E0,-2.922234535E-1,9.371489525E0
2.980799234E1,-1.019043326E0,-2.476571500E-1,1.184596729E1
2.982770489E1,-1.099202871E0,-7.579265833E-1,6.986742973E0
2.984739755E1,-1.220339537E0,-5.623133108E-2,1.041476059E1
2.986710005E1,-1.075274706E0,-6.586244106E-1,1.018355370E1
2.988681656E1,-1.257428288E0,-4.884349108E-1,1.085683441E1
2.990650536E1,-9.302098155E-1,4.217349738E-2,9.770194054E0
2.992620072E1,-1.874178290E0,-8.419744968E-1,1.045424175E1
2.994590182E1,-1.395015597E0,-1.806581169E-1,1.172154045E1
2.996562447E1,-1.433300734E0,-1.076770201E-2,9.933204651E0
2.998533708E1,-1.086042404E0,-4.573282301E-1,8.423932076E0
3.000502713E1,-1.480259895E0,-2.958126962E-1,1.122084236E1
3.002473026E1,-1.065703392E0,-3.999004960E-1,1.072014427E1
3.004445656E1,-1.186540961E0,-7.196413875E-1,1.004835987E1
3.006415119E1,-9.819545746E-1,-3.819543123E-1,9.345169067E0
3.008384541E1,-1.136291623E0,-5.003990531E-1,1.002532864E1
3.010355406E1,-9.448658228E-1,1.498505175E-1,1.081466103E1
3.012328057E1,-1.111167073E0,-2.644068897E-1,9.868598938E0
3.014295010E1,-8.129615188E-1,5.859424472E-1,1.032622623E1
3.016267276E1,-9.711868763E-1,-2.730808854E-1,7.746165276E0
3.018238656E1,-1.075274706E0,2.063809521E-2,1.152861977E1
3.020207161E1,-1.186540961E0,-5.401797295E-1,1.149990559E1
3.022178885E1,-1.534098387E0,-1.268195957E-1,8.123333931E0
3.024147890E1,-1.415354609E0,-2.706880569E-1,1.016082191E1
3.026118666E1,-6.415755749E-1,-8.515457511E-1,1.111525917E1
3.028086666E1,-1.525723577E0,-6.574280262E-1,8.808578491E0
3.030059312E1,-1.113559842E0,-3.137588799E-1,1.091545868E1
3.032029666E1,-1.221535921E0,-1.610967875E0,9.650552750E0
3.034001067E1,-1.263410330E0,-7.411768436E-1,8.697012901E0
3.035971765E1,-1.791625977E0,6.011966988E-2,1.069023418E1
3.037943630E1,-2.026421785E0,-5.267201066E-1,9.905687332E0
3.039912885E1,-8.428717852E-1,-2.428714931E-1,1.095374393E1
3.041882520E1,-1.172183990E0,-1.059721351E0,7.507780075E0
3.043853010E1,-2.428714931E-1,-4.680959284E-1,1.173230839E1
3.045823187E1,-1.771286964E0,-9.879366755E-1,1.085324574E1
3.047793291E1,-1.568794370E0,7.447660714E-2,9.995418549E0
3.049764067E1,-8.165507317E-1,1.725823283E-1,1.298136234E1
3.051735427E1,-4.908277392E-1,-1.523330688E0,7.210771084E0
3.053705150E1,-5.446662307E-1,2.000997961E-1,1.362353611E1
3.055674890E1,-7.627122104E-2,-8.021938205E-1,1.024337482E1
3.057645984E1,-2.268096685E0,-1.491027594E0,6.055037498E0
3.059615625E1,-2.071885347E0,3.726821244E-1,1.585005760E1
3.061586281E1,-1.436890006E0,-3.723830283E-1,1.135603714E1
3.063558682E1,-8.129615188E-1,1.058824062E0,8.877969742E0
3.065527150E1,-6.849454641E-1,1.339382529E0,1.138475132E1
3.067497234E1,-2.088634968E0,-6.658028960E-1,5.032105923E0
3.069466895E1,-3.589234054E-1,-1.195214868E0,1.172871971E1
3.071438869E1,1.716850251E-1,1.235294715E-1,1.062203884E1
3.073406578E1,-1.008275628E0,2.551347017E-1,1.164108181E1
3.075379437E1,-9.891330600E-1,-1.237089276E0,8.836095810E0
3.077349317E1,-2.682653189E0,-4.070789516E-1,7.219145775E0
3.079319400E1,-7.758727670E-1,-4.334000051E-1,9.443274498E0
3.081290484E1,-1.914258152E-1,-9.795617461E-1,9.002696037E0
3.083262244E1,8.045866340E-2,4.576273263E-1,9.296115875E0
3.085232796E1,-1.543669701E0,-9.065806866E-1,1.389781284E1
3.087203505E1,-1.975873351E0,-1.335195065E0,7.877770424E0
3.089173000E1,-9.484550953E-1,-7.776673883E-2,1.121007538E1
3.091142645E1,-1.645065658E-2,-4.546362907E-2,7.286144733E0
3.093113572E1,-3.469592929E-1,2.647060156E-1,9.207282066E0
3.095084364E1,-2.744866610E0,-8.135596663E-2,1.499611855E1
3.097053395E1,-2.698206663E0,-1.964208245E0,4.934897423E0
3.099026833E1,-1.220339537E0,-1.105484009E0,1.044347477E1
3.100994822E1,2.578266263E-1,4.085744619E-1,4.919344425E0
3.102967250E1,-6.415755749E-1,-3.747758567E-1,1.972732735E1
3.104935473E1,-2.099402666E0,-6.622136831E-1,5.245366573E0
3.106906109E1,-7.986045480E-1,-4.187439755E-2,9.297312737E0
3.108875307E1,-4.022932947E-1,-7.537391037E-2,9.247062683E0
3.110843598E1,-6.391827464E-1,-1.062114120E0,1.122084236E1
3.112813317E1,-1.908874273E0,-1.197607756E0,1.384277821E1
3.114786838E1,-7.734799385E-1,-5.207380056E-1,7.827520847E0
3.116756885E1,-6.020939946E-1,1.334297776E0,8.458927155E0
3.118729166E1,7.704889178E-1,-3.987040818E-1,1.008664513E1
3.120699114E1,-6.705885530E-1,-6.442674994E-1,1.322692490E1
3.122670000E1,-3.314059377E-1,-1.752144337E0,8.754739761E0
3.124640250E1,-3.242274821E-1,-1.758724600E-1,1.375514126E1
3.126609119E1,-1.546062589E0,-5.183451772E-1,6.078966141E0
3.128581416E1,-1.414158225E0,-2.958126962E-1,1.378265858E1
3.130550718E1,-2.763710022E-1,-6.227321029E-1,1.035374355E1
3.132522437E1,2.446661144E-1,7.606185079E-1,6.949654102E0
3.134493083E1,-1.172183990E0,2.063809521E-2,1.350479221E1
3.136463723E1,-1.766501307E0,-7.537391037E-2,9.191729546E0
3.138434671E1,-2.488535494E-1,-2.105384827E0,1.362114334E1
3.140404677E1,-6.355935335E-1,1.642074585E-1,7.788039684E0
3.142373750E1,-9.520443082E-1,6.708876491E-1,7.419245720E0
3.144344911E1,-9.218349457E-1,2.781656384E-2,1.317428303E1
3.146313666E1,-8.644071817E-1,-3.496512175E-1,8.006085396E0
3.148284338E1,-1.378265858E0,3.678964674E-1,8.310273170E0
3.150254453E1,-1.329213023E0,-4.070789516E-1,8.676673889E0
3.152223130E1,-1.036989570E0,-1.360618830E0,9.799206734E0
3.154195598E1,9.242277592E-2,-1.603191197E-1,8.860024452E0
3.156166593E1,-7.100701332E-1,-5.844469070E-1,1.016560745E1
3.158136515E1,-3.517449200E-1,-5.892325640E-1,8.383254051E0
3.160107098E1,-1.357926846E0,-1.103091240E0,1.109731293E1
3.162075333E1,-9.867402315E-1,-8.264211416E-1,9.911669731E0
3.164048536E1,-1.277767301E0,-1.495813251E0,9.674481392E0
3.166018369E1,-1.842473447E-1,-1.065703392E0,6.684948444E0
3.167989109E1,-1.175773263E0,-8.479565382E-1,1.078714371E1
3.169959911E1,7.926224917E-2,-1.180858016E0,1.004686451E1
3.171930713E1,-7.962117195E-1,-7.435696125E-1,1.063639545E1
3.173901187E1,2.135594189E-1,6.251249462E-2,1.146520996E1
3.175869916E1,-9.616156220E-1,-1.504188180E0,9.153444290E0
3.177840562E1,-1.283749342E0,-2.536391914E-1,7.862216949E0
3.179814177E1,-2.070688963E0,-3.711866140E-1,1.146401310E1
3.181781447E1,5.533402413E-2,-3.376871049E-1,1.168564892E1
3.183752187E1,-1.148255825E0,-1.182054400E0,5.263312340E0
3.185720395E1,-7.902296782E-1,1.307079345E-1,1.752204132E1
3.187692000E1,-1.492223978E0,-1.555633783E0,6.833303452E0
3.189663510E1,3.343969584E-1,6.912266612E-1,1.301396370E1
3.191633479E1,-1.986042857E-1,-1.365404367E0,6.856334209E0
3.193606583E1,-1.289133132E-1,-6.047859192E-1,1.220070362E1
3.195573900E1,-1.954337835E0,-6.939185411E-2,1.076919746E1
3.197545958E1,-7.818548083E-1,-1.127019525E0,9.017052650E0
3.199518036E1,-1.035793066E0,-9.149555564E-1,5.467898846E0
3.201492437E1,2.973082066E-1,-1.304088384E-1,1.034177971E1
3.203456395E1,-1.592722535E0,1.704886183E-2,1.526441383E1
3.205426067E1,-3.661018610E-1,-1.149751306E0,6.253642082E0
3.207398359E1,-1.112363458E0,-9.520443082E-1,1.320180035E1
3.209367244E1,-9.062815458E-2,-1.717448473E0,3.626023531E0
3.211337494E1,-1.912463546E0,-6.622136831E-1,1.726810455E1
3.213309421E1,-1.156630635E0,-5.688936114E-1,9.002696037E0
3.215279947E1,-1.771286964E0,-8.096713424E-1,7.357929707E0
3.217248786E1,-3.230310678E-1,-1.339980662E-1,1.033220863E1
3.219218067E1,-1.344766378E0,-1.372582912E0,9.440881729E0
3.221190119E1,-3.792623878E-1,1.585244946E-2,1.533859158E1
3.223160479E1,-5.410770178E-1,1.354935765E-1,7.456334591E0
3.225130484E1,5.524429083E-1,1.175474152E-1,1.049013424E1
3.227101479E1,6.849455088E-2,-7.459624410E-1,9.674481392E0
3.229071307E1,7.860422134E-1,-1.003489971E0,1.278156090E1
3.231043484E1,-4.896313250E-1,-8.946165442E-1,1.025174904E1
3.233013250E1,-6.678966284E-1,-6.658028960E-1,7.241877556E0
3.234981911E1,-1.760519266E0,7.342974544E-1,1.152383423E1
3.236955088E1,-3.002992272E-1,1.016949654E0,1.548365593E1
3.238923520E1,1.259222865E0,-1.719841242E0,1.032742214E1
3.240892208E1,3.703790426E0,1.395613790E0,1.105663490E1
3.242863921E1,1.625623941E0,-6.550351977E-1,1.034297562E1
3.244837958E1,-2.191526413E0,1.814656854E0,7.541279793E0
3.246804515E1,-1.755733609E0,5.440680385E-1,1.473859119E1
3.248775916E1,-1.516152263E0,-7.375875711E-1,1.062084198E1
3.250745729E1,-6.020939946E-1,-1.031007409E0,8.334200859E0
3.252717614E1,-1.123131156E0,-4.905286431E-2,8.303094864E0
3.254688416E1,-1.282552958E0,-7.076773047E-1,8.362915039E0
3.256656828E1,-2.028814554E0,-1.274178028E0,1.141854954E1
3.258626828E1,-7.124629617E-1,-9.364909530E-1,6.943672180E0
3.260597500E1,-7.591229677E-1,-1.136590764E-1,1.008066273E1
3.262568468E1,-6.921239495E-1,-7.417750359E-2,5.016552448E0
3.264540208E1,1.495514181E-3,-1.122233868E0,9.742676735E0
3.266511984E1,1.683051586E0,-1.481456280E0,8.496015549E0
3.268479833E1,-2.193919182E0,-1.016650558E0,8.577371597E0
3.270452828E1,2.949153781E-1,-8.614161611E-2,1.024337482E1
3.272420666E1,-1.658525229E0,-8.575277925E-1,9.827920914E0
3.274390614E1,4.974080026E-1,-5.724828243E-1,8.135297775E0
3.276360229E1,-7.986045629E-2,-5.497509837E-1,7.428816795E0
3.278334515E1,9.514461160E-1,-3.687937856E-1,9.753444672E0
3.280302583E1,2.841476798E-1,-9.221340418E-1,9.300901413E0
3.282272015E1,-3.649054468E-1,-4.992026389E-1,8.262416840E0
3.284243218E1,-6.777670383E-1,4.671986103E-1,1.405095387E1
3.286213760E1,-2.324627161E0,-7.615157962E-1,9.195318222E0
3.288186333E1,-8.895317912E-1,1.526022673E0,1.168684483E1
3.290154057E1,-7.399803996E-1,-1.144965649E0,8.445766449E0
3.292124385E1,1.063908815E0,3.189632654E0,4.472783566E0
3.294095494E1,-9.218349457E-1,-1.784447432E0,1.401865101E1
3.296065026E1,1.860419661E-1,-1.517348647E0,9.003892899E0
3.298037041E1,-1.672882080E0,-8.599206209E-1,1.072373390E1
3.300005671E1,3.164508045E-1,-1.244267821E0,1.450858116E1
3.301977317E1,-3.385843933E-1,-2.008475542E0,4.438087940E0
3.303948031E1,-1.318445325E0,3.546761274E0,9.550054550E0
3.305917572E1,-3.035893679E0,-4.106980801E0,1.742752457E1
3.307887083E1,-2.243271284E-2,-1.028913707E-1,3.358924866E0
3.309856380E1,2.178964138E0,2.233999014E0,1.418046474E1
3.311827145E1,-6.311069429E-2,-1.943869352E0,7.107879639E0
3.313797375E1,3.559323549E-1,5.270192027E-1,1.250010586E1
3.315769442E1,2.662015148E-2,-2.193022013E0,1.238375473E1
3.317740567E1,-7.651050687E-1,-2.934198678E-1,9.230013847E0
3.319710593E1,-2.174776793E0,-1.802393675E0,7.505387306E0
3.321678770E1,-2.045863420E-1,-1.598704576E0,1.151067352E1
3.323651734E1,-1.489831209E0,2.941676378E0,9.323633194E0
3.325621786E1,2.709572554E0,-2.188236237E0,1.152861977E1
3.327592276E1,2.422732860E-1,9.595218897E-1,3.780360699E0
3.329561958E1,1.110568762E0,2.455634177E-1,1.433898926E0
3.331532900E1,-1.796411633E0,2.563311160E-1,2.628366089E1
3.333502750E1,-5.303093195E-1,-2.543869495E0,4.453640938E0
3.335473000E1,-1.344766378E0,1.152443171E0,9.274580956E0
3.337444427E1,-3.383451223E0,-1.842473447E-1,1.002054310E1
3.339413864E1,-2.437089920E0,-1.718644857E0,1.020508957E1
3.341382989E1,9.610173702E-1,-1.250249863E0,1.409193039E1
3.343356854E1,1.702194214E0,1.806282043E0,4.307379723E0
3.345325010E1,-8.907282352E-1,-1.875673890E0,8.026424408E0
3.347294729E1,-3.343670607E0,9.547362328E-1,4.943272591E0
3.349268260E1,1.604088426E0,-1.864607096E0,2.079572296E1
3.351237250E1,-3.045464993E0,-1.771286964E0,6.384349823E0
3.353208572E1,-3.577269912E-1,-1.654038668E0,9.748658180E0
3.355177812E1,-1.723131418E0,-2.722434044E0,4.278666019E0
3.357149453E1,-5.267201066E-1,6.684948206E-1,1.167368412E1
3.359119000E1,-9.640084505E-1,1.342971772E-1,7.880163193E0
3.361089432E1,-9.002995491E-1,-3.787240028E0,9.333204269E0
3.363060374E1,-1.074078321E0,4.779663086E-1,6.796214581E0
3.365030734E1,1.200299621E0,-1.946262121E0,1.669322777E1
3.366998760E1,8.458628058E-1,2.635095835E0,1.050808048E1
3.368970479E1,4.265505314E0,3.716651678E0,2.307279348E0
3.370940307E1,4.163810730E0,-3.318845034E0,8.026424408E0
3.372914468E1,5.081159115E0,2.033899307E0,1.570050621E1
3.374881229E1,-4.391726971E0,1.293619752E0,1.242802143E1
3.376852921E1,-3.856332779E0,-3.672085524E0,1.041476059E1
3.378820223E1,-4.345067024E0,1.224227905E0,1.030678463E1
3.380795880E1,-1.938186288E-1,-4.226323068E-1,1.386550999E1
3.382763140E1,-7.770691514E-1,-4.832903385E0,1.083260727E1
3.384733697E1,2.568396091E0,3.248256743E-1,1.362353611E1
3.386707395E1,-1.884945989E0,-5.837589741E0,-1.841875196E0
3.388676359E1,-2.519642353E0,4.299005032E0,3.065056229E1
3.390645057E1,-4.419543266E0,1.934597135E0,3.938585997E0
3.392617817E1,-1.815554142E0,-5.576473236E0,7.881359577E0
3.394586276E1,-2.620140910E-1,3.521636724E0,9.072088242E0
3.396556963E1,-1.569990754E0,-1.229910851E0,6.774679184E0
3.398529770E1,-2.032403708E0,1.675873160E0,1.258624744E1
3.400495406E1,1.896311939E-1,-4.055535316E0,5.803492069E0
3.402469098E1,-1.426122308E0,-5.449653625E0,5.448756218E0
3.404438333E1,-2.845664263E0,-2.027618170E0,1.211306667E1
3.406409031E1,-2.547458887E0,4.132404804E0,1.588834190E1
3.408378479E1,-1.405783277E-2,9.200403094E-1,5.950650692E0
3.410351588E1,3.805485249E0,-5.003990531E-1,2.422732860E-1
3.412320541E1,-3.099602699E0,-5.031507969E0,3.858426511E-1
3.414287531E1,7.477570791E-3,-1.323230863E0,1.340309715E1
3.416260552E1,-2.539981127E0,5.586343765E0,2.204956245E1
3.418231098E1,-3.267100334E0,-1.603490233E0,6.498009205E0
3.420202031E1,-1.898106575E0,1.542772412E0,4.706383228E0
3.422171822E1,-2.152044773E0,2.717947483E0,4.842773914E0
3.424142364E1,1.111765265E0,1.084247708E0,2.019302940E1
3.426112041E1,-1.531406492E-1,-9.759725332E-1,6.496812344E0
3.428082947E1,-1.121934772E0,2.152642965E0,5.362614632E0
3.430054265E1,1.492822170E0,2.259123564E0,1.598315811E1
3.432022213E1,-1.127916813E0,-3.444468260E0,4.849952221E0
3.433995166E1,-1.027418256E0,-1.231107235E0,1.542024612E1
3.435965791E1,-2.934198856E0,-3.764508247E0,1.280907917E1
3.437936067E1,-1.884945989E0,-1.220339537E-1,5.847759247E0
3.439905718E1,-1.185344458E0,-1.261017561E0,9.511769295E0
3.441876203E1,-1.768894196E0,-3.814757586E0,1.092742252E1
3.443847223E1,-2.411965132E0,-6.981059909E-1,1.543101406E1
3.445815046E1,2.019841433E0,1.400399446E0,7.347161770E0
3.447787723E1,-1.855035782E0,-1.318445325E0,1.050927734E1
3.449758250E1,-1.084846020E0,2.757428885E0,1.058225822E1
3.451728921E1,5.608177781E-1,2.379961252E0,1.632802391E1
3.453698588E1,1.071087241E0,-1.642074585E0,5.734997749E0
3.455669895E1,1.789831281E0,9.020941257E-1,5.192425251E0
3.457642208E1,4.974080026E-1,1.034895778E0,1.099442196E1
3.459609072E1,-1.205982566E0,-6.939185411E-2,5.836991787E0
3.461579880E1,-5.721837282E-1,-4.680959284E-1,1.071535873E1
3.463550817E1,-2.451446772E0,1.700997829E0,5.179264545E0
3.465524203E1,-1.111167073E0,2.469991207E0,1.248574829E1
3.467492531E1,-2.494517565E0,-2.367697954E0,9.955936432E0
3.469461880E1,-3.844368696E0,-1.847857237E0,1.196112251E1
3.471431697E1,-3.450450182E0,-2.486441851E0,1.104227829E1
3.473402468E1,-2.415554523E0,-1.274178028E0,8.734400749E0
3.475372958E1,-2.846860647E0,-9.451649338E-2,1.466202068E1
3.477344473E1,-1.087238789E0,-7.100701332E-1,8.639585495E0
3.479314744E1,-3.041875839E0,-1.541276932E0,1.018834019E1
3.481284208E1,-9.278169870E-1,-2.151147604E0,1.337916851E1
3.483253822E1,-2.410768747E0,-9.089735150E-1,6.601199627E0
3.485225578E1,2.063809521E-2,-6.717849374E-1,7.488637447E0
3.487196911E1,1.728515267E0,1.438684613E-1,9.485149384E0
3.489164609E1,2.925225735E0,-1.233500123E0,9.719944954E0
3.491136124E1,9.837492108E-1,-1.669592023E0,9.352347374E0
3.493107083E1,1.501496136E-1,-9.436694384E-1,3.357728481E0
3.495077010E1,1.264008522E0,1.366899908E-1,9.783653259E0
3.497047302E1,2.044965982E0,2.955136061E0,1.022303581E1
3.499018302E1,1.223330572E-1,5.572285652E-1,4.133601189E0
3.500987286E1,1.489532143E-1,-1.051346421E0,1.125673485E1
3.502959421E1,-2.439482689E0,-1.001097202E0,5.775974751E0
3.504928843E1,-2.657528639E0,-6.197111607E0,6.452545166E0
3.506899250E1,-3.127120018E0,3.619144112E-2,1.795813370E1
3.508869776E1,-3.035893679E0,2.024926096E-1,9.363115311E0
3.510840067E1,-4.223032951E0,1.522433460E-1,1.054038334E1
3.512810432E1,-2.937788010E0,2.680858612E0,1.453370571E1
3.514782463E1,-3.871886253E0,-2.694916487E0,1.338634682E1
3.516752781E1,-3.704388618E0,1.021735311E0,9.370293617E0
3.518722364E1,-1.614257932E0,8.458628058E-1,1.646321869E1
3.520692182E1,-3.753441334E0,-2.030010939E0,9.058927536E0
3.522662145E1,-2.979662418E0,8.644071966E-2,1.320897961E1
3.524633083E1,5.057829022E-1,-2.778665304E0,6.358028889E0
3.526604052E1,2.226820469E0,-1.009472013E0,7.633403301E0
3.528575932E1,6.849455088E-2,-2.237289190E0,4.500301361E0
3.530544333E1,-2.039582253E0,-7.842476368E-1,7.440781116E0
3.532515614E1,-1.041775107E0,2.401496649E0,1.364148235E1
3.534486171E1,-4.752743840E-1,-1.474277854E0,2.369492531E0
3.536456567E1,2.021037817E0,-1.034596682E0,5.868098259E0
3.538425703E1,4.866403043E-1,4.731806815E-1,3.463012457E0
3.540396484E1,-3.287439108E0,-3.322434187E0,4.794618487E-1
3.542367468E1,-1.373480201E0,2.183749676E0,1.561167240E1
3.544337307E1,7.208377868E-2,8.315058947E-1,9.821938515E0
3.546309083E1,6.855437160E-1,-1.064507008E0,1.158604717E1
3.548278510E1,4.914259613E-1,-3.601497173E0,5.187639713E0
3.550248874E1,2.518445849E-1,-3.385843992E0,6.241677761E0
3.552219843E1,1.861616015E0,4.695316315E0,1.561167240E1
3.554190802E1,1.290329576E0,1.250548959E0,1.356610775E1
3.556160234E1,-4.501497746E-1,9.954141974E-1,1.267358494E1
3.558132427E1,-1.656132340E0,3.296113312E-1,1.649462318E1
3.560104093E1,-1.674078584E0,-1.002293587E0,1.487408447E1
3.562072630E1,-1.623829246E0,3.427718580E-1,1.124237823E1
3.564043635E1,-7.100701332E-1,-1.542473316E0,1.276241875E1
3.566012598E1,-2.541177750E0,4.109672904E-1,1.387029552E1
3.567980750E1,-1.377069473E0,1.270887971E0,9.783653259E0
3.569953250E1,-3.541377485E-1,-3.898506403E0,1.012732315E1
3.571924177E1,-1.531406492E-1,1.612463355E0,6.463313103E0
3.573894312E1,-2.228615284E0,1.963310957E0,1.426301765E1
3.575867437E1,-1.516152263E0,2.099701881E0,7.900502205E0
3.577835770E1,-1.257428288E0,-2.595315218E0,1.100877857E1
3.579803510E1,-1.422533035E0,-1.901994944E0,9.510273933E0
3.581777307E1,-2.383251429E0,8.231309652E-1,1.311565876E1
3.583746973E1,-1.613061547E0,-3.197409213E-1,9.945169449E0
3.585717265E1,-7.459624410E-1,1.016949654E0,3.786641955E-1
3.587687500E1,-1.295713425E0,-4.118646085E-1,8.682656288E0
3.589658781E1,7.621139884E-1,-3.958326817E0,8.001299858E0
3.591635828E1,2.038984060E0,1.989632010E0,5.984150410E0
3.593599640E1,2.164607286E0,1.880758643E0,2.411366940E0
3.595569156E1,-4.597210586E-1,2.379961252E0,7.686344624E0
3.597538786E1,6.218347549E-1,6.493522525E-1,1.228086281E1
3.599509317E1,6.819544435E-1,-2.429013968E0,1.057627583E1
3.601482046E1,-2.891128063E0,-2.921038151E0,4.168596268E0
3.603450541E1,-4.584648132E0,-1.674377680E0,1.550249934E0
3.605419921E1,-3.164208889E0,-2.033899166E-2,1.426421356E1
3.607394067E1,-2.699403048E0,7.127620578E-1,7.810771465E0
3.609360937E1,-1.487438321E0,5.678766251E0,7.335197926E0
3.611330973E1,-1.510170221E0,1.616052628E0,1.156810093E1
3.613301000E1,-1.948355794E0,-1.852642894E0,1.157527924E1
3.615275890E1,-2.760420084E0,-1.396511078E0,1.023619652E1
3.617242145E1,-6.068796515E-1,-7.782655358E-1,1.603938866E1
3.619212864E1,-1.213161111E0,-2.285145670E-1,9.390632629E0
3.621184114E1,-7.579265833E-1,2.985046208E-1,1.894038773E1
3.623154083E1,-1.549651742E0,-1.829911113E0,6.936493874E0
3.625126546E1,-2.756830692E0,-8.766704202E-1,1.340429306E1
3.627097260E1,-2.887538671E0,4.456632137E-1,1.306899929E1
3.629066145E1,-4.837389946E0,1.259222925E-1,1.201256752E1
3.631035328E1,-4.448257446E0,-5.641079545E-1,6.045466423E0
3.633006473E1,-2.379662037E0,6.421737671E-1,7.312466145E0
3.634978593E1,-1.363908947E-1,-1.794617027E-1,1.226291656E1
3.636949177E1,4.438087940E0,-1.164108157E0,9.949954987E0
3.638918458E1,-1.205384433E-1,-3.239881754E0,5.816652775E0
3.640888812E1,-3.349951744E0,-6.460621208E-2,1.060409260E1
3.642860781E1,-1.596311808E0,-2.639582396E0,6.898208618E0
3.644828984E1,-1.591227055E-1,1.172782183E0,8.425128937E0
3.646800937E1,6.672984362E-1,6.194419861E-1,1.324367523E1
3.648770208E1,-1.243071318E0,-2.826521635E0,4.432105541E0
3.650740625E1,-9.484550953E-1,-9.831510186E-1,5.514857769E0
3.652711150E1,1.357328653E0,-2.507977247E0,1.576750469E1
3.654680807E1,8.315058947E-1,4.429413795E0,1.546690655E1
3.656651557E1,2.151446581E0,1.300798178E0,3.835395575E0
3.658619984E1,1.829312921E0,-2.301895380E0,1.509542084E1
3.660595296E1,2.280958176E0,-4.133302212E0,4.458426952E0
3.662564380E1,-2.245364904E0,-2.374876499E0,1.297777271E1
3.664533916E1,-1.467996716E0,2.554936409E0,9.145069122E0
3.666504348E1,-2.500499785E-1,1.234995604E0,8.959325790E0
3.668474755E1,2.144268274E0,-3.614657640E0,7.683951855E0
3.670442479E1,-1.613061547E0,-2.699702263E0,2.789732218E0
3.672415510E1,-2.667997181E-1,1.127318621E0,2.204956245E1
3.674386729E1,-9.541380405E-2,-6.819544733E-2,3.029313564E0
3.676355447E1,-1.963909149E0,-2.016850471E0,6.258427620E0
3.678326322E1,3.071187973E0,-4.130610228E-1,4.848755836E0
3.680298135E1,-9.062815458E-2,7.558328509E-1,7.025028229E0
3.682267604E1,8.673981763E-3,1.262513041E0,1.573400497E1
3.684239838E1,-3.158525825E-1,-1.603490233E0,9.384650230E0
3.686210583E1,-2.746062994E0,5.943173170E-1,1.436261845E1
3.688180374E1,-1.094417214E0,1.565504193E0,6.870691299E0
3.690147822E1,-2.603690147E0,-1.441974759E0,9.910472870E0
3.692116734E1,-1.064507008E0,4.022335052E0,1.905644035E1
3.694088703E1,-1.719542146E0,4.983053207E-1,1.182323551E1
3.696059682E1,2.461616278E0,-6.897311211E-1,9.928419113E0
3.698029697E1,1.523928881E0,-2.467299223E0,1.298973656E1
3.700000229E1,-1.268195987E0,-6.263213158E-1,1.470150185E1
3.701972223E1,-2.706581593E0,-7.328019142E-1,1.160758305E1
3.703940135E1,-2.524427891E0,-3.544069529E0,6.331707954E0
3.705911197E1,3.391826153E-1,2.201695919E0,1.263888931E1
3.707880296E1,-1.650150299E0,1.036092162E0,8.279166222E0
3.709852171E1,-1.706381679E0,7.247261405E-1,8.570193291E0
3.711822020E1,-1.161416292E0,-2.021636009E0,1.011296558E1
3.713792400E1,4.217349738E-2,-2.172683001E0,2.253141642E0
3.715764072E1,-1.880160451E0,-1.807179332E0,1.056550884E1
3.717733994E1,-1.960319996E0,9.236295223E-1,4.293023109E0
3.719704791E1,-1.323230863E0,6.610172242E-2,1.037049294E1
3.721677874E1,7.453642488E-1,1.354935765E-1,8.801400185E0
3.723645562E1,6.553342938E-1,-2.129612118E-1,7.354340553E0
3.725617385E1,-2.657528639E0,-3.088835001E0,7.838288784E0
3.727588104E1,-2.428714991E0,2.302194595E0,1.217049408E1
3.729556036E1,-2.186740875E0,-1.813161373E0,4.549354076E0
3.731526770E1,-5.398806334E-1,4.061816335E-1,9.480362892E0
3.733496901E1,-1.424925923E0,1.539183140E0,5.720640659E0
3.735467791E1,-9.472586513E-1,7.630113363E-1,1.312523079E1
3.737438447E1,-1.819143414E0,-5.712863803E-1,1.024217796E1
3.739408541E1,-1.581954837E0,-2.157129526E0,9.847063065E0
3.741381213E1,-9.302098155E-1,-9.987043738E-1,9.439684868E0
3.743349265E1,-8.763712645E-1,-9.571290575E-3,1.305823135E1
3.745320635E1,-1.311266780E0,1.451845169E0,7.500601768E0
3.747289395E1,-5.937191248E-1,2.036890239E-1,1.302712440E1
3.749260864E1,-1.535294771E0,1.322333574E0,1.101715374E1
3.751231900E1,-1.137488008E0,6.230311990E-1,1.164706421E1
3.753201739E1,8.883354068E-2,-2.254039049E0,1.138475132E1
3.755171791E1,2.267199457E-1,8.165507019E-2,9.666106224E0
3.757144229E1,1.307079345E-1,-3.041875660E-1,9.050552368E0
3.759114166E1,-8.907282352E-1,-6.442674994E-1,1.276002598E1
3.761084750E1,-1.782054663E0,-7.316055298E-1,7.731808186E0
3.763055020E1,-1.316052437E0,-4.621138871E-1,8.166404724E0
3.765023739E1,-1.912463546E0,-1.119840980E0,1.276481152E1
3.766994645E1,-2.021636009E0,1.463809252E0,1.053440189E1
3.768965265E1,-2.790330410E0,2.204387933E-1,8.784649849E0
3.770937010E1,-5.133202553E0,-2.864806890E0,9.112766266E0
3.772906197E1,-3.275475025E0,1.139282703E0,9.642177582E0
3.774879124E1,-5.905785561E0,-1.184447184E-1,1.146281719E1
3.776847177E1,-3.168994427E0,-2.237289101E-1,1.231675529E1
3.778816833E1,1.633998752E0,-8.730811477E-1,1.137278652E1
3.780787984E1,3.541975737E0,2.228316069E-1,6.923333168E0
3.782757890E1,-1.719542146E0,1.708176255E0,1.283151150E0
3.784728874E1,-3.843172312E0,2.715554714E0,1.404257870E1
3.786698921E1,1.756331801E0,-4.310669899E0,1.041954613E1
3.788669067E1,-1.013061285E0,1.226321608E-2,8.003692627E0
3.790639046E1,-1.544866085E0,-1.013061285E0,8.384450912E0
3.792611859E1,-2.983251572E0,-1.844268084E0,2.916850805E0
3.794582302E1,-2.258525372E0,-1.414457321E0,1.407278824E1
3.796551359E1,-1.003489971E0,5.772684515E-2,5.257330418E0
3.798521880E1,-1.323230863E0,1.304387450E0,1.107577801E1
3.800494932E1,3.056831062E-1,-3.397808075E0,5.457130909E0
3.802462973E1,-2.609672308E0,6.026921868E-1,5.440381527E0
3.804431687E1,-1.905285001E0,6.490531564E-2,1.704198265E1
3.806403260E1,-1.192523003E0,-4.114159584E0,7.764111042E0
3.808372953E1,-3.302095234E-1,-9.532406926E-1,9.437292099E0
3.810345156E1,-1.026221752E0,-1.148554832E-1,1.286172104E1
3.812314307E1,-2.686242580E0,-7.328019142E-1,1.205563831E1
3.814287494E1,-1.238285661E0,-4.214358926E-1,1.275165081E1
3.816254609E1,-8.093722463E-1,-2.185843468E0,1.184118176E1
3.818224692E1,-1.294517040E0,-1.080359459E0,1.018475056E1
3.820197598E1,-2.452643156E0,5.102694035E-1,1.584287834E1
3.822167083E1,-1.613061547E0,-2.656033039E-1,1.248455238E1
3.824136057E1,-6.176473498E-1,-4.323830605E0,3.795913935E0
3.826108291E1,1.988435626E0,-3.136691332E0,9.456435204E0
3.828077005E1,1.720140338E0,8.404789865E-2,1.291795254E1
3.830051161E1,-1.269392371E0,6.445665956E-1,4.960022449E0
3.832017552E1,-2.186740875E0,-6.382854581E-1,3.773182154E0
3.833989364E1,-7.136593461E-1,2.609971285E0,9.238389015E0
3.835959770E1,-1.330409408E0,-3.821935892E0,1.326909924E1
3.837929994E1,-1.084846020E0,1.870888233E0,8.040781021E0
3.839900062E1,1.011266708E0,1.939382792E0,1.062323570E1
3.841870140E1,6.807580590E-1,-4.490131855E0,1.303490162E0
3.843841338E1,-7.914260626E-1,-1.192822099E0,1.327268791E1
3.845811364E1,-6.693921089E-1,2.141875267E0,1.286889935E1
3.847781848E1,-1.411765337E0,-4.202394783E-1,8.249256134E0
3.849751260E1,-8.057830334E-1,4.695914388E-1,1.021466064E1
3.851725250E1,-2.000998020E0,8.925228715E-1,1.204726410E1
3.853693041E1,-2.983251572E0,5.042873621E-1,1.261735344E1
3.855663229E1,-3.209672451E0,4.157529473E-1,9.569196701E0
3.857633604E1,-3.196511984E0,4.133601189E-1,1.351316643E1
3.859604572E1,-3.948755503E0,2.913261652E-1,7.676773071E0
3.861576088E1,-3.510270834E0,-1.639083475E-1,1.335165119E1
3.863546359E1,-2.231008053E0,-3.382254839E0,1.006510925E1
3.865515812E1,-1.980658889E0,-1.380957723E0,4.753043175E0
3.867485515E1,-2.126920223E0,-7.531409264E-1,9.743872643E0
3.869456494E1,-1.638186216E0,8.470591903E-1,1.158963680E1
3.871426619E1,-2.222633123E0,-3.101696372E-1,6.755536556E0
3.873396984E1,-1.373480201E0,-2.970091105E-1,6.239284992E0
3.875367114E1,-1.979462504E0,-5.503492057E-2,6.278766632E0
3.877337364E1,-1.683649778E0,6.505486369E-1,1.102552891E1
3.879308411E1,-1.241874933E0,3.200400174E-1,8.482855797E0
3.881281932E1,-1.306481123E0,-1.854437590E-1,1.138744259E1
3.883250635E1,-1.363908947E-1,-4.118646085E-1,6.058627129E0
3.885223250E1,-1.019043326E0,-4.393820465E-1,7.896913052E0
3.887191197E1,-2.004587173E0,-9.690931439E-2,9.457631111E0
3.889161270E1,-1.308874011E0,2.659024298E-1,9.799206734E0
3.891131578E1,-1.900499344E0,-1.302891970E0,8.864809990E0
3.893103989E1,-2.350948334E0,-2.273181453E-2,1.050329494E1
3.895071380E1,-3.629014730E0,2.084746659E-1,9.594321251E0
3.897042265E1,-3.930809498E0,1.462612897E-1,1.102552891E1
3.899010145E1,-4.080360889E0,-4.645066857E-1,1.102193928E1
3.900982760E1,-3.293421268E0,-3.855435550E-1,7.335197926E0
3.902953291E1,-3.143869877E0,-2.009970993E-1,1.048176003E1
3.904924458E1,-2.913859844E0,-1.495514214E-1,1.144845963E1
3.906894848E1,-2.401197433E0,-3.317050338E-1,8.452944756E0
3.908865177E1,-2.536391973E0,-6.179464459E-1,1.018116093E1
3.910832874E1,-1.477867126E0,-7.417750359E-2,1.435065460E1
3.912802817E1,-2.394019127E0,-6.562315822E-1,8.766703606E0
3.914776718E1,-2.149652004E0,-1.268195957E-1,7.887341499E0
3.916748239E1,-3.230011463E0,5.500500798E-1,1.166889858E1
3.918716354E1,-4.637290478E0,4.875376225E-1,1.299841118E1
3.920687791E1,-3.774976730E0,-1.406082392E0,5.870491028E0
3.922657885E1,-1.485045552E0,-1.839482427E0,9.037391663E0
3.924628390E1,1.024427176E0,5.452644825E-1,1.296221924E1
3.926598348E1,-2.383251429E0,1.976471543E0,4.537389755E0
3.928569994E1,-2.742473841E0,-1.859821439E0,7.547261715E0
3.930539104E1,-2.813361168E0,-6.346961856E-1,9.719944954E0
3.932509708E1,1.868794441E0,-2.737987280E0,1.151186943E1
3.934480833E1,-7.842476368E-1,-3.628117442E-1,5.936294079E0
3.936451317E1,-1.856232166E0,3.690928817E-1,7.064509869E0
3.938421848E1,-9.278169870E-1,-1.125823021E0,1.875703812E1
3.940392260E1,-2.785544634E0,-1.428814173E0,2.611466885E0
3.942362937E1,-2.007279158E0,1.857428551E-1,9.160622597E0
3.944333473E1,-2.403590441E0,-4.860421121E-1,1.391217041E1
3.946302635E1,-3.896113396E0,-1.671984792E0,6.422635078E0
3.948272994E1,-2.837289333E0,-9.951151013E-1,1.219591808E1
3.950246750E1,-2.541177750E0,-1.777269006E0,1.153340530E1
3.952215057E1,-3.021536827E0,-1.407278776E0,7.961818218E0
3.954185145E1,-2.518445730E0,-6.921239495E-1,1.070100212E1
3.956154927E1,-2.766402006E0,-1.152144074E0,8.892327309E0
3.958125406E1,-2.533999205E0,-4.785645381E-2,1.115623665E1
3.960096276E1,-2.702992201E0,-2.430210590E0,1.196949673E1
3.962066374E1,-1.726720691E0,2.961117923E-1,1.039322472E1
3.964036333E1,-9.675976634E-1,-2.226521492E0,4.152743816E0
3.966008427E1,-5.253142834E0,1.199103236E0,1.413260841E1
3.967977156E1,-1.133599728E-1,-1.388136268E0,1.047936630E1
3.969948031E1,-1.639083475E-1,7.127620578E-1,7.252645493E0
3.971916364E1,-1.180558920E0,-2.068295956E0,3.273680449E0
3.973888515E1,-6.092724800E-1,1.411167145E0,1.848156357E1
3.975859218E1,-1.920838356E0,3.944268942E0,5.140979290E0
3.977829322E1,-4.644468784E0,-2.081456661E0,9.997811317E0
3.979800229E1,-5.123631358E-1,-8.599206209E-1,6.801000118E0
3.981770218E1,-2.469393015E0,-1.246660590E0,1.390828192E-1
3.983741406E1,-1.948355794E0,8.709874153E-1,1.145085239E1
3.985714437E1,-9.326026440E-1,2.317747831E0,1.104347515E1
3.987683223E1,-8.811569214E-1,-2.618046999E0,7.715058327E0
3.989652124E1,-1.207179070E0,1.953141540E-1,1.140180016E1
3.991625041E1,-3.010769129E0,-2.476571500E-1,5.157729149E0
3.993593958E1,-2.113759756E0,-5.279164910E-1,1.332772255E1
3.995563395E1,-2.411965132E0,1.120140076E0,7.785646915E0
3.997533656E1,-3.757030725E0,-7.962117195E-1,1.289402390E1
3.999504510E1,-3.245564699E0,1.091725305E-1,1.166172028E1
4.001480400E1,-2.923431158E0,-3.340978622E-1,1.165334511E1
4.003446031E1,-1.096810102E0,-6.550351977E-1,1.275524044E1
4.005416052E1,-2.561815739E0,-1.797608018E0,1.007348442E1
4.007384052E1,-1.345962763E0,1.566700578E0,1.155972576E1
4.009357052E1,-2.327019930E0,-1.481456280E0,1.100279713E1
4.011327442E1,-2.598904610E0,7.642077208E-1,8.004889488E0
4.013297453E1,-1.356730461E0,8.650053740E-1,6.501598358E0
4.015270020E1,-2.053939104E0,-1.705484390E0,8.796614647E0
4.017237500E1,-1.840678811E0,2.877369225E-1,8.803792953E0
4.019209411E1,-2.252543449E0,8.877372146E-1,8.230113029E0
4.021181958E1,-1.373480201E0,2.204387933E-1,1.249771309E1
4.023149411E1,-1.820339799E0,-1.307677627E0,8.414361000E0
4.025119802E1,-2.122134686E0,-3.472583890E-1,6.530312061E0
4.027090447E1,-2.676671267E0,-8.407780528E-1,1.124237823E1
4.029063244E1,-1.154237866E0,4.552344978E-1,8.779864311E0
4.031029421E1,-2.917448997E0,-2.560320199E-1,7.719843864E0
4.033002406E1,-2.478964329E0,-4.692923427E-1,7.623832226E0
4.034971932E1,-3.419343472E0,-1.009472013E0,1.073928738E1
4.036943374E1,-1.493420482E0,-9.831510186E-1,1.400549030E1
4.038913666E1,-1.471585870E0,-7.016952634E-1,1.193719387E1
4.040884359E1,-3.617050648E0,-1.044167995E0,4.979464054E0
4.042853359E1,-4.337888241E0,-1.039382339E0,1.564158249E1
4.044823651E1,-5.279164910E-1,-2.207378864E0,8.788239479E0
4.046793661E1,-5.039882660E0,-1.188036442E0,8.286344528E0
