"Time (s)","Acceleration x (m/s^2)","Acceleration y (m/s^2)","Acceleration z (m/s^2)"
1.240963000E-2,1.213161111E0,7.161718369E0,6.278766632E0
3.325313600E-2,1.076770186E0,7.077969551E0,6.439085960E0
5.409664200E-2,1.103091240E0,7.137789726E0,6.257231236E0
7.497066600E-2,1.079162955E0,7.094718933E0,6.431907177E0
9.578365400E-2,1.134197950E0,7.130611420E0,6.348158360E0
1.166271600E-1,1.150947690E0,7.140182972E0,6.376872540E0
1.374706660E-1,1.134197950E0,7.128218651E0,6.381658077E0
1.583158560E-1,1.134197950E0,7.118647575E0,6.338587284E0
1.791898800E-1,1.153340459E0,7.128218651E0,6.321837425E0
2.000028680E-1,1.189232826E0,7.137789726E0,6.300302029E0
2.208463740E-1,1.213161111E0,7.128218651E0,6.300302029E0
2.416898800E-1,1.186840057E0,7.130611420E0,6.290730953E0
2.625028680E-1,1.261017561E0,7.101897717E0,6.297909260E0
2.833463740E-1,1.177268744E0,7.094718933E0,6.338587284E0
3.041898800E-1,1.220339537E0,7.123433113E0,6.324230194E0
3.250028680E-1,1.117448211E0,7.142575741E0,6.340980053E0
3.458463740E-1,1.167697430E0,7.147361279E0,6.309873104E0
3.666898800E-1,1.115055323E0,7.140182972E0,6.350551128E0
3.875028680E-1,1.119840980E0,7.152146816E0,6.326622963E0
4.083158560E-1,1.115055323E0,7.142575741E0,6.372086525E0
4.291593620E-1,1.136590719E0,7.161718369E0,6.326622963E0
4.499723510E-1,1.153340459E0,7.166503906E0,6.307480335E0
4.708158560E-1,1.136590719E0,7.161718369E0,6.305087566E0
4.916593620E-1,1.153340459E0,7.142575741E0,6.307480335E0
5.124723510E-1,1.229910851E0,7.125825882E0,6.307480335E0
5.332853390E-1,1.203589797E0,7.089933395E0,6.338587284E0
5.541288450E-1,1.143769264E0,7.082755089E0,6.379265308E0
5.749723510E-1,1.232303619E0,7.063612461E0,6.369693756E0
5.958463740E-1,1.131805062E0,7.116254330E0,6.343372822E0
6.166898800E-1,1.179661512E0,7.092326164E0,6.336194515E0
6.375028680E-1,1.110269666E0,7.149754047E0,6.331408501E0
6.583463740E-1,1.086341500E0,7.164111137E0,6.338587284E0
6.791898800E-1,1.060020447E0,7.200003147E0,6.317051888E0
7.000028680E-1,1.095912814E0,7.200003147E0,6.300302029E0
7.208463740E-1,1.076770186E0,7.183253765E0,6.324230194E0
7.416593620E-1,1.021735311E0,7.178467751E0,6.348158360E0
7.625333860E-1,1.036092162E0,7.168896675E0,6.364908218E0
7.833463740E-1,9.978070259E-1,7.137789726E0,6.407979012E0
8.041898800E-1,1.040877819E0,7.121040344E0,6.388836384E0
8.250028680E-1,1.040877819E0,7.111468792E0,6.388836384E0
8.458158560E-1,1.040877819E0,7.125825882E0,6.369693756E0
8.666593620E-1,9.738788009E-1,7.176074982E0,6.281159401E0
8.874723510E-1,1.031306505E0,7.080362320E0,6.436692715E0
9.083158560E-1,9.714859724E-1,7.092326164E0,6.448657036E0
9.291593620E-1,1.000199914E0,7.180860519E0,6.326622963E0
9.500028680E-1,9.690931439E-1,7.149754047E0,6.396014690E0
9.708158560E-1,9.643075466E-1,7.142575741E0,6.405586243E0
9.916593620E-1,9.978070259E-1,7.142575741E0,6.317051888E0
1.012472351E0,9.690931439E-1,7.135396957E0,6.369693756E0
1.033315856E0,1.052842021E0,7.128218651E0,6.362515450E0
1.054128845E0,1.007378340E0,7.142575741E0,6.329015732E0
1.074972351E0,1.074377418E0,7.094718933E0,6.393621922E0
1.095785339E0,1.060020447E0,7.089933395E0,6.355337143E0
1.116628845E0,1.098305583E0,7.116254330E0,6.324230194E0
1.137472351E0,1.100698471E0,7.075576782E0,6.364908218E0
1.158315856E0,1.110269666E0,7.073183537E0,6.362515450E0
1.179159362E0,1.148554921E0,7.106683254E0,6.355337143E0
1.200002868E0,1.110269666E0,7.111468792E0,6.374479294E0
1.220846374E0,1.165304661E0,7.123433113E0,6.360122681E0
1.241689880E0,1.160519004E0,7.104290485E0,6.309873104E0
1.262533386E0,1.182054400E0,7.123433113E0,6.338587284E0
1.283376892E0,1.158126116E0,7.152146816E0,6.336194515E0
1.304220397E0,1.153340459E0,7.133004189E0,6.345765591E0
1.325094421E0,1.153340459E0,7.101897717E0,6.338587284E0
1.345937927E0,1.179661512E0,7.113861561E0,6.348158360E0
1.366781433E0,1.153340459E0,7.116254330E0,6.379265308E0
1.387624938E0,1.146162033E0,7.063612461E0,6.400800705E0
1.408468444E0,1.143769264E0,7.044469833E0,6.372086525E0
1.429311950E0,1.155733347E0,7.056434155E0,6.396014690E0
1.450155456E0,1.170090318E0,7.073183537E0,6.403193474E0
1.470998962E0,1.141376376E0,7.082755089E0,6.364908218E0
1.491842468E0,1.162911773E0,7.080362320E0,6.367300987E0
1.512685974E0,1.143769264E0,7.087540627E0,6.364908218E0
1.533498962E0,1.117448211E0,7.128218651E0,6.343372822E0
1.554342468E0,1.134197950E0,7.147361279E0,6.312266350E0
1.575185974E0,1.146162033E0,7.130611420E0,6.352943897E0
1.596029479E0,1.153340459E0,7.142575741E0,6.333801746E0
1.616903503E0,1.170090318E0,7.166503906E0,6.362515450E0
1.637747009E0,1.201196909E0,7.137789726E0,6.393621922E0
1.658590515E0,1.241874933E0,7.121040344E0,6.324230194E0
1.679434020E0,1.237089276E0,7.111468792E0,6.329015732E0
1.700247009E0,1.143769264E0,7.101897717E0,6.355337143E0
1.721090515E0,1.122233868E0,7.121040344E0,6.391229153E0
1.741903503E0,1.062413216E0,7.092326164E0,6.388836384E0
1.762747009E0,1.040877819E0,7.130611420E0,6.367300987E0
1.783590515E0,1.009771109E0,7.195217609E0,6.340980053E0
1.804464538E0,1.040877819E0,7.173682213E0,6.369693756E0
1.825308044E0,1.062413216E0,7.161718369E0,6.364908218E0
1.846121032E0,1.095912814E0,7.140182972E0,6.305087566E0
1.866964538E0,1.083948612E0,7.135396957E0,6.348158360E0
1.887808044E0,1.086341500E0,7.106683254E0,6.405586243E0
1.908651550E0,1.100698471E0,7.099504948E0,6.396014690E0
1.929464538E0,1.141376376E0,7.061219692E0,6.396014690E0
1.950338561E0,1.196411371E0,7.027719975E0,6.431907177E0
1.971182067E0,1.184447169E0,7.061219692E0,6.372086525E0
1.992025573E0,1.191625714E0,7.109076023E0,6.321837425E0
2.012869079E0,1.217946768E0,7.125825882E0,6.329015732E0
2.033743102E0,1.165304661E0,7.140182972E0,6.343372822E0
2.054556091E0,1.167697430E0,7.147361279E0,6.317051888E0
2.075369079E0,1.162911773E0,7.111468792E0,6.333801746E0
2.096212585E0,1.184447169E0,7.104290485E0,6.345765591E0
2.117086608E0,1.162911773E0,7.094718933E0,6.357729912E0
2.137930114E0,1.170090318E0,7.070790768E0,6.386443615E0
2.158773620E0,1.179661512E0,7.089933395E0,6.393621922E0
2.179586608E0,1.215553880E0,7.030112743E0,6.379265308E0
2.200430114E0,1.225125194E0,7.027719975E0,6.393621922E0
2.221273620E0,1.124626637E0,7.192824841E0,6.295516491E0
2.242117126E0,1.208375454E0,7.240681171E0,6.336194515E0
2.262960632E0,1.153340459E0,7.166503906E0,6.427121639E0
2.283804138E0,1.196411371E0,7.140182972E0,6.312266350E0
2.304647643E0,1.215553880E0,7.118647575E0,6.305087566E0
2.325491149E0,1.213161111E0,7.044469833E0,6.419943333E0
2.346334655E0,1.208375454E0,7.066005230E0,6.417550564E0
2.367178161E0,1.229910851E0,7.032505512E0,6.288337708E0
2.388052185E0,1.296909928E0,7.042077065E0,6.307480335E0
2.408895690E0,1.280160069E0,7.068397999E0,6.295516491E0
2.429739196E0,1.275374413E0,7.152146816E0,6.271588326E0
2.450582702E0,1.134197950E0,7.147361279E0,6.276373863E0
2.471426208E0,1.057627559E0,7.202396393E0,6.257231236E0
2.492269714E0,9.571290612E-1,7.233502865E0,6.273981094E0
2.513082702E0,9.499505758E-1,7.226324558E0,6.355337143E0
2.533926208E0,9.762716293E-1,7.192824841E0,6.374479294E0
2.554769714E0,1.076770186E0,7.164111137E0,6.340980053E0
2.575613220E0,1.136590719E0,7.075576782E0,6.369693756E0
2.596456726E0,1.177268744E0,7.018148899E0,6.419943333E0
2.617269714E0,1.220339537E0,7.044469833E0,6.400800705E0
2.638113220E0,1.184447169E0,7.049255371E0,6.352943897E0
2.658956726E0,1.127019525E0,7.070790768E0,6.319444656E0
2.679800231E0,1.093519926E0,7.161718369E0,6.338587284E0
2.700613220E0,1.064806104E0,7.195217609E0,6.336194515E0
2.721456726E0,1.086341500E0,7.161718369E0,6.340980053E0
2.742300231E0,1.062413216E0,7.137789726E0,6.357729912E0
2.763143737E0,1.052842021E0,7.147361279E0,6.393621922E0
2.783987243E0,1.064806104E0,7.092326164E0,6.427121639E0
2.804830749E0,1.081555843E0,7.049255371E0,6.357729912E0
2.825674255E0,1.067198873E0,7.063612461E0,6.283552170E0
2.846487243E0,1.071984529E0,7.121040344E0,6.271588326E0
2.867330749E0,1.074377418E0,7.178467751E0,6.273981094E0
2.888143737E0,1.100698471E0,7.180860519E0,6.388836384E0
2.908987243E0,1.134197950E0,7.178467751E0,6.568298340E0
2.929830749E0,1.098305583E0,7.152146816E0,6.494120598E0
2.950674255E0,1.165304661E0,7.058826923E0,6.412764549E0
2.971517761E0,1.225125194E0,6.958328247E0,6.453442574E0
2.992330749E0,1.280160069E0,6.989434719E0,6.446264267E0
3.013174255E0,1.258624673E0,7.089933395E0,6.415157318E0
3.033987243E0,1.213161111E0,7.044469833E0,6.372086525E0
3.054830749E0,1.205982566E0,7.085147858E0,6.355337143E0
3.075643737E0,1.136590719E0,7.219145775E0,6.281159401E0
3.096487243E0,1.184447169E0,7.243073940E0,6.336194515E0
3.117330749E0,1.138983607E0,7.166503906E0,6.343372822E0
3.138174255E0,1.210768223E0,7.147361279E0,6.230910301E0
3.158987243E0,1.189232826E0,7.116254330E0,6.312266350E0
3.179800231E0,1.213161111E0,7.099504948E0,6.400800705E0
3.200643737E0,1.182054400E0,7.094718933E0,6.405586243E0
3.221456726E0,1.170090318E0,7.051648140E0,6.403193474E0
3.242300231E0,1.205982566E0,7.049255371E0,6.396014690E0
3.263113220E0,1.225125194E0,7.149754047E0,6.348158360E0
3.283956726E0,1.196411371E0,7.142575741E0,6.348158360E0
3.304769714E0,1.184447169E0,7.099504948E0,6.360122681E0
3.325613220E0,1.153340459E0,7.092326164E0,6.319444656E0
3.346426208E0,1.182054400E0,7.080362320E0,6.317051888E0
3.367239196E0,1.158126116E0,7.070790768E0,6.434299946E0
3.388082702E0,1.119840980E0,7.077969551E0,6.398407936E0
3.408926208E0,1.129412293E0,7.125825882E0,6.321837425E0
3.429739196E0,1.146162033E0,7.178467751E0,6.379265308E0
3.450552185E0,1.138983607E0,7.166503906E0,6.357729912E0
3.471395690E0,1.150947690E0,7.118647575E0,6.329015732E0
3.492208679E0,1.158126116E0,7.097112179E0,6.305087566E0
3.513052185E0,1.148554921E0,7.125825882E0,6.343372822E0
3.533895690E0,1.100698471E0,7.101897717E0,6.403193474E0
3.554769714E0,1.091127157E0,7.077969551E0,6.396014690E0
3.575582702E0,1.088734269E0,7.077969551E0,6.364908218E0
3.596426208E0,1.103091240E0,7.125825882E0,6.367300987E0
3.617239196E0,1.110269666E0,7.109076023E0,6.367300987E0
3.638082702E0,1.100698471E0,7.116254330E0,6.343372822E0
3.658895690E0,1.127019525E0,7.109076023E0,6.398407936E0
3.679739196E0,1.103091240E0,7.125825882E0,6.403193474E0
3.700582702E0,1.100698471E0,7.142575741E0,6.329015732E0
3.721426208E0,1.052842021E0,7.087540627E0,6.364908218E0
3.742239196E0,1.036092162E0,7.075576782E0,6.427121639E0
3.763082702E0,1.112662554E0,7.097112179E0,6.360122681E0
3.783895690E0,1.112662554E0,7.087540627E0,6.360122681E0
3.804739196E0,1.110269666E0,7.087540627E0,6.391229153E0
3.825552185E0,1.158126116E0,7.085147858E0,6.352943897E0
3.846365173E0,1.127019525E0,7.080362320E0,6.384050846E0
3.867208679E0,1.155733347E0,7.020541668E0,6.393621922E0
3.888052185E0,1.220339537E0,6.963113785E0,6.405586243E0
3.908865173E0,1.194018483E0,7.018148899E0,6.415157318E0
3.929678161E0,1.213161111E0,7.130611420E0,6.319444656E0
3.950521667E0,1.136590719E0,7.133004189E0,6.333801746E0
3.971365173E0,1.100698471E0,7.192824841E0,6.285944939E0
3.992178161E0,1.016949654E0,7.252645493E0,6.264409542E0
4.013021667E0,8.925228715E-1,7.243073940E0,6.333801746E0
4.033834655E0,9.690931439E-1,7.190432072E0,6.369693756E0
4.054678161E0,9.355936646E-1,7.178467751E0,6.372086525E0
4.075491149E0,1.002592683E0,7.049255371E0,6.415157318E0
4.096304138E0,9.786644578E-1,6.982256413E0,6.496513367E0
4.117147643E0,1.115055323E0,7.013363361E0,6.491727829E0
4.137991149E0,1.138983607E0,7.046862602E0,6.467799664E0
4.158834655E0,1.091127157E0,7.008577347E0,6.489335060E0
4.179647643E0,1.055234790E0,7.039684296E0,6.506084919E0
4.200491149E0,1.033699393E0,7.008577347E0,6.448657036E0
4.221304138E0,9.858429432E-1,7.051648140E0,6.503692150E0
4.242147643E0,1.060020447E0,6.999006271E0,6.477370739E0
4.262960632E0,1.062413216E0,7.013363361E0,6.422336102E0
4.283773620E0,1.143769264E0,7.125825882E0,6.381658077E0
4.304617126E0,1.112662554E0,7.156932354E0,6.266802311E0
4.325430114E0,1.052842021E0,7.154539585E0,6.238088608E0
4.346273620E0,1.014556766E0,7.257431030E0,6.247660160E0
4.367086608E0,9.212366939E-1,7.269395351E0,6.195017815E0
4.387899597E0,8.733802438E-1,7.250252724E0,6.360122681E0
4.408743102E0,7.896314859E-1,7.228717327E0,6.443871498E0
4.429556091E0,8.135597110E-1,7.200003147E0,6.345765591E0
4.450399597E0,6.915257573E-1,7.140182972E0,6.482156754E0
4.471212585E0,7.274180651E-1,7.006184578E0,6.539584160E0
4.492056091E0,6.388836503E-1,7.214360237E0,6.726224422E0
4.512869079E0,8.279166222E-1,7.228717327E0,6.544369698E0
4.533712585E0,7.561319470E-1,7.073183537E0,6.415157318E0
4.554556091E0,8.183453679E-1,7.070790768E0,6.525227547E0
4.575369079E0,7.728816867E-1,7.283751965E0,6.465406895E0
4.596212585E0,8.183453679E-1,7.276573658E0,6.606583118E0
4.617025573E0,9.116654396E-1,7.010970116E0,6.539584160E0
4.637869079E0,8.374879360E-1,7.039684296E0,6.319444656E0
4.658682067E0,8.685946465E-1,7.106683254E0,6.446264267E0
4.679525573E0,7.992027402E-1,7.140182972E0,6.580262184E0
4.700338561E0,8.303094506E-1,7.142575741E0,6.446264267E0
4.721151550E0,8.829515576E-1,7.161718369E0,6.486942291E0
4.741995056E0,9.332008362E-1,7.125825882E0,6.463014126E0
4.762808044E0,9.547362328E-1,7.099504948E0,6.312266350E0
4.783651550E0,9.571290612E-1,7.085147858E0,6.393621922E0
4.804464538E0,9.308080077E-1,7.140182972E0,6.372086525E0
4.825277526E0,9.427721500E-1,7.221538544E0,6.293123722E0
4.846121032E0,9.020941257E-1,7.243073940E0,6.285944939E0
4.866934020E0,8.709874153E-1,7.204789162E0,6.305087566E0
4.887777526E0,9.164510965E-1,7.173682213E0,6.355337143E0
4.908590515E0,8.374879360E-1,7.142575741E0,6.465406895E0
4.929434020E0,9.092726111E-1,7.118647575E0,6.518048763E0
4.950247009E0,9.930213690E-1,7.118647575E0,6.417550564E0
4.971090515E0,1.067198873E0,7.066005230E0,6.439085960E0
4.991903503E0,1.009771109E0,7.020541668E0,6.486942291E0
5.012747009E0,9.906286001E-1,7.037291527E0,6.518048763E0
5.033559997E0,9.523434043E-1,7.051648140E0,6.541976929E0
5.054403503E0,9.858429432E-1,7.049255371E0,6.501298904E0
5.075216491E0,1.016949654E0,7.058826923E0,6.427121639E0
5.096029479E0,1.052842021E0,7.061219692E0,6.407979012E0
5.116872985E0,1.045663476E0,7.044469833E0,6.400800705E0
5.137685974E0,1.050449133E0,7.087540627E0,6.393621922E0
5.158498962E0,1.076770186E0,7.121040344E0,6.362515450E0
5.179342468E0,1.060020447E0,7.128218651E0,6.343372822E0
5.200155456E0,1.043270707E0,7.097112179E0,6.319444656E0
5.220998962E0,1.021735311E0,7.140182972E0,6.324230194E0
5.241811950E0,1.040877819E0,7.176074982E0,6.307480335E0
5.262655456E0,1.093519926E0,7.197610378E0,6.293123722E0
5.283468444E0,1.138983607E0,7.159325123E0,6.257231236E0
5.304311950E0,1.150947690E0,7.101897717E0,6.290730953E0
5.325155456E0,1.115055323E0,7.063612461E0,6.388836384E0
5.345968444E0,1.143769264E0,7.063612461E0,6.388836384E0
5.366811950E0,1.103091240E0,7.030112743E0,6.431907177E0
5.387624938E0,1.079162955E0,6.970292568E0,6.503692150E0
5.408437927E0,1.007378340E0,6.984649181E0,6.515655994E0
5.429281433E0,9.690931439E-1,7.034898758E0,6.506084919E0
5.450124938E0,9.140582681E-1,7.061219692E0,6.501298904E0
5.470937927E0,8.566305041E-1,7.099504948E0,6.470192432E0
5.491750915E0,8.135597110E-1,7.161718369E0,6.436692715E0
5.512594421E0,8.039883971E-1,7.173682213E0,6.465406895E0
5.533407409E0,7.465606928E-1,7.209574699E0,6.441478729E0
5.554220397E0,7.489534616E-1,7.238288403E0,6.422336102E0
5.575063903E0,7.704889178E-1,7.168896675E0,6.467799664E0
5.595876892E0,8.159525394E-1,7.130611420E0,6.439085960E0
5.616720397E0,8.685946465E-1,7.109076023E0,6.369693756E0
5.637533386E0,8.973084688E-1,7.094718933E0,6.410371780E0
5.658346374E0,9.523434043E-1,7.101897717E0,6.410371780E0
5.679189880E0,9.762716293E-1,7.113861561E0,6.362515450E0
5.700033386E0,1.007378340E0,7.082755089E0,6.362515450E0
5.720846374E0,9.834501147E-1,7.113861561E0,6.360122681E0
5.741689880E0,9.954141974E-1,7.116254330E0,6.355337143E0
5.762502868E0,1.026520967E0,7.104290485E0,6.374479294E0
5.783315856E0,9.954141974E-1,7.135396957E0,6.355337143E0
5.804159362E0,1.040877819E0,7.152146816E0,6.362515450E0
5.824972351E0,1.004985452E0,7.111468792E0,6.407979012E0
5.845815856E0,1.057627559E0,7.109076023E0,6.372086525E0
5.866659362E0,1.057627559E0,7.130611420E0,6.379265308E0
5.887472351E0,1.095912814E0,7.101897717E0,6.398407936E0
5.908315856E0,1.086341500E0,7.070790768E0,6.376872540E0
5.929159362E0,1.107876897E0,7.049255371E0,6.388836384E0
5.950002868E0,1.115055323E0,7.046862602E0,6.424728870E0
5.970846374E0,1.136590719E0,7.056434155E0,6.396014690E0
5.991633200E0,1.165304661E0,7.058826923E0,6.393621922E0
6.012476706E0,1.160519004E0,7.058826923E0,6.381658077E0
6.033289694E0,1.136590719E0,7.085147858E0,6.364908218E0
6.054102683E0,1.033699393E0,7.106683254E0,6.379265308E0
6.074946189E0,1.019342422E0,7.054041386E0,6.439085960E0
6.095759177E0,1.012163997E0,7.092326164E0,6.415157318E0
6.116602683E0,1.062413216E0,7.140182972E0,6.388836384E0
6.137415671E0,1.105484009E0,7.159325123E0,6.357729912E0
6.158228659E0,1.138983607E0,7.123433113E0,6.360122681E0
6.179072165E0,1.127019525E0,7.128218651E0,6.324230194E0
6.199885153E0,1.074377418E0,7.116254330E0,6.331408501E0
6.220728659E0,1.016949654E0,7.101897717E0,6.398407936E0
6.241541648E0,9.786644578E-1,7.111468792E0,6.419943333E0
6.262385153E0,9.451649189E-1,7.149754047E0,6.439085960E0
6.283198142E0,9.403793216E-1,7.125825882E0,6.436692715E0
6.304011130E0,9.236295223E-1,7.113861561E0,6.405586243E0
6.324854636E0,9.260223508E-1,7.135396957E0,6.403193474E0
6.345667624E0,9.308080077E-1,7.152146816E0,6.436692715E0
6.366511130E0,9.044869542E-1,7.130611420E0,6.429514408E0
6.387324118E0,9.140582681E-1,7.147361279E0,6.422336102E0
6.408167624E0,9.355936646E-1,7.173682213E0,6.417550564E0
6.428980612E0,9.164510965E-1,7.142575741E0,6.384050846E0
6.449793601E0,9.523434043E-1,7.106683254E0,6.396014690E0
6.470667624E0,9.547362328E-1,7.130611420E0,6.403193474E0
6.491480612E0,9.954141974E-1,7.125825882E0,6.388836384E0
6.512293601E0,1.031306505E0,7.116254330E0,6.405586243E0
6.533106589E0,1.105484009E0,7.082755089E0,6.386443615E0
6.553950095E0,1.143769264E0,7.068397999E0,6.374479294E0
6.574763083E0,1.165304661E0,7.032505512E0,6.372086525E0
6.595606589E0,1.189232826E0,7.046862602E0,6.386443615E0
6.616450095E0,1.115055323E0,7.056434155E0,6.405586243E0
6.637263083E0,1.167697430E0,7.118647575E0,6.398407936E0
6.658076071E0,1.134197950E0,7.152146816E0,6.338587284E0
6.678919577E0,1.150947690E0,7.202396393E0,6.269195557E0
6.699732565E0,1.048056364E0,7.216753006E0,6.293123722E0
6.720545554E0,1.021735311E0,7.202396393E0,6.302694798E0
6.741389060E0,1.043270707E0,7.202396393E0,6.331408501E0
6.762202048E0,1.055234790E0,7.168896675E0,6.331408501E0
6.783045554E0,1.081555843E0,7.087540627E0,6.364908218E0
6.803889060E0,1.088734269E0,7.054041386E0,6.391229153E0
6.824702048E0,1.124626637E0,7.030112743E0,6.388836384E0
6.845515036E0,1.117448211E0,7.037291527E0,6.427121639E0
6.866358542E0,1.150947690E0,7.018148899E0,6.463014126E0
6.887171530E0,1.155733347E0,6.996613503E0,6.419943333E0
6.908015036E0,1.177268744E0,7.020541668E0,6.376872540E0
6.928828024E0,1.170090318E0,7.061219692E0,6.379265308E0
6.949671530E0,1.105484009E0,7.058826923E0,6.386443615E0
6.970515036E0,1.115055323E0,7.061219692E0,6.384050846E0
6.991328024E0,1.196411371E0,7.056434155E0,6.350551128E0
7.012171530E0,1.256231904E0,7.061219692E0,6.369693756E0
7.032984519E0,1.318445325E0,7.092326164E0,6.345765591E0
7.053828024E0,1.301695466E0,7.082755089E0,6.321837425E0
7.074641013E0,1.306481123E0,7.063612461E0,6.305087566E0
7.095454001E0,1.294517040E0,7.051648140E0,6.309873104E0
7.116297507E0,1.249053478E0,7.049255371E0,6.312266350E0
7.137110495E0,1.205982566E0,7.123433113E0,6.300302029E0
7.157954001E0,1.134197950E0,7.185646534E0,6.297909260E0
7.178766989E0,1.091127157E0,7.166503906E0,6.343372822E0
7.199610495E0,1.009771109E0,7.142575741E0,6.360122681E0
7.220454001E0,9.260223508E-1,7.209574699E0,6.372086525E0
7.241266989E0,8.709874153E-1,7.250252724E0,6.329015732E0
7.262110495E0,7.537391186E-1,7.305287361E0,6.357729912E0
7.282954001E0,6.364908218E-1,7.360322475E0,6.352943897E0
7.303766989E0,5.264210105E-1,7.412964344E0,6.321837425E0
7.324610495E0,3.613162339E-1,7.460821152E0,6.364908218E0
7.345423483E0,3.756731451E-1,7.580461979E0,6.309873104E0
7.366266989E0,3.445664644E-1,7.618747234E0,6.307480335E0
7.387079978E0,4.043870270E-1,7.566105366E0,6.372086525E0
7.407923483E0,3.637090325E-1,7.511070251E0,6.362515450E0
7.428736472E0,5.455635786E-1,7.331608772E0,6.410371780E0
7.449549460E0,4.283152521E-1,7.278966427E0,6.556334019E0
7.470392966E0,5.623133183E-1,7.250252724E0,6.434299946E0
7.491205954E0,6.556333899E-1,7.195217609E0,6.477370739E0
7.512049460E0,7.250252366E-1,7.130611420E0,6.599404812E0
7.532892966E0,8.901300430E-1,7.111468792E0,6.484549522E0
7.553736472E0,9.834501147E-1,7.063612461E0,6.429514408E0
7.574549460E0,1.191625714E0,6.979863644E0,6.396014690E0
7.595392966E0,1.287338614E0,6.977470875E0,6.352943897E0
7.616236472E0,1.378265858E0,6.982256413E0,6.321837425E0
7.637049460E0,1.471585870E0,6.929614544E0,6.302694798E0
7.657892966E0,1.359123230E0,6.865008354E0,6.190232277E0
7.678736472E0,1.414158225E0,6.721438885E0,6.168696880E0
7.699579978E0,1.483550072E0,6.664011002E0,6.295516491E0
7.720392966E0,1.607976794E0,6.683153629E0,6.477370739E0
7.741236472E0,1.706082582E0,6.640082836E0,6.683153629E0
7.762049460E0,1.694118381E0,6.587440968E0,6.759724140E0
7.782892966E0,1.780260086E0,6.537191391E0,6.802794933E0
7.803705954E0,1.835294962E0,6.489335060E0,6.876972198E0
7.824549460E0,1.969292998E0,6.477370739E0,6.922435760E0
7.845392966E0,2.148754835E0,6.364908218E0,7.022934437E0
7.866236472E0,2.215753794E0,6.252445698E0,7.037291527E0
7.887049460E0,2.213361025E0,6.218945980E0,6.747759819E0
7.907862448E0,2.210968018E0,6.202196121E0,6.498906136E0
7.928705954E0,2.356930256E0,6.388836384E0,6.630511761E0
7.949549460E0,2.340180635E0,6.685546398E0,6.680760860E0
7.970362448E0,2.419143677E0,6.977470875E0,6.594619274E0
7.991205954E0,2.371287346E0,7.106683254E0,6.594619274E0
8.012018942E0,2.366501570E0,7.188039303E0,6.506084919E0
8.032862448E0,2.246860504E0,7.262216568E0,6.446264267E0
8.053705954E0,1.974078655E0,7.197610378E0,6.340980053E0
8.074549460E0,1.820937991E0,7.121040344E0,6.144768715E0
8.095362448E0,1.591227055E0,7.178467751E0,5.962913990E0
8.116205954E0,1.591227055E0,7.262216568E0,5.879165173E0
8.137049460E0,1.404586911E0,7.391428947E0,5.855237007E0
8.157892966E0,1.359123230E0,7.424928665E0,5.852844238E0
8.178736472E0,1.261017561E0,7.412964344E0,5.857629776E0
8.199549460E0,1.079162955E0,7.417750359E0,5.809773445E0
8.220423483E0,1.057627559E0,7.386643410E0,5.814558983E0
8.241236472E0,9.212366939E-1,7.415357590E0,5.970092297E0
8.262079978E0,1.007378340E0,7.429714203E0,6.013163090E0
8.282892966E0,9.547362328E-1,7.410571575E0,6.077769279E0
8.303736472E0,9.690931439E-1,7.372286797E0,6.051448345E0
8.324549460E0,1.079162955E0,7.415357590E0,6.032305717E0
8.345392966E0,1.162911773E0,7.420143127E0,6.123233318E0
8.366205954E0,1.272981644E0,7.384250641E0,6.163911343E0
8.387049460E0,1.277767301E0,7.341179848E0,6.130411625E0
8.407892966E0,1.385444283E0,7.233502865E0,6.195017815E0
8.428705954E0,1.430907965E0,7.161718369E0,6.309873104E0
8.449549460E0,1.478764415E0,7.135396957E0,6.321837425E0
8.470362448E0,1.552941918E0,7.073183537E0,6.326622963E0
8.491175437E0,1.569691658E0,6.970292568E0,6.419943333E0
8.511988425E0,1.658226132E0,6.927221775E0,6.431907177E0
8.532831931E0,1.653440475E0,6.898507595E0,6.446264267E0
8.553644919E0,1.715653777E0,6.860222340E0,6.412764549E0
8.574488425E0,1.670190215E0,6.893722057E0,6.362515450E0
8.595301413E0,1.653440475E0,6.984649181E0,6.317051888E0
8.616144919E0,1.629512191E0,7.089933395E0,6.278766632E0
8.636957907E0,1.651047587E0,7.164111137E0,6.230910301E0
8.657801413E0,1.660618901E0,7.142575741E0,6.159125328E0
8.678614401E0,1.643869162E0,7.142575741E0,6.178267956E0
8.699457907E0,1.658226132E0,7.125825882E0,6.180660725E0
8.720301413E0,1.593619823E0,7.135396957E0,6.238088608E0
8.741144919E0,1.548156261E0,7.104290485E0,6.297909260E0
8.761988425E0,1.497906923E0,7.097112179E0,6.278766632E0
8.782801413E0,1.497906923E0,7.073183537E0,6.197410583E0
8.803644919E0,1.533799291E0,7.058826923E0,6.092126369E0
8.824488425E0,1.555334687E0,7.168896675E0,6.137589931E0
8.845301413E0,1.586441398E0,7.252645493E0,6.151947021E0
8.866114401E0,1.564906001E0,7.168896675E0,6.190232277E0
8.886957907E0,1.584048629E0,7.046862602E0,6.106483459E0
8.907801413E0,1.483550072E0,7.259823799E0,6.053841114E0
8.928614401E0,1.514656782E0,7.147361279E0,6.020341873E0
8.949427390E0,1.500299811E0,7.034898758E0,5.924628735E0
8.970270896E0,1.294517040E0,7.269395351E0,6.283552170E0
8.991083884E0,1.552941918E0,7.037291527E0,6.084948063E0
9.011896872E0,1.519442320E0,6.848258495E0,6.226124287E0
9.032740378E0,1.385444283E0,6.905686378E0,6.293123722E0
9.053553366E0,1.600798368E0,7.077969551E0,6.417550564E0
9.074366355E0,1.225125194E0,7.054041386E0,6.364908218E0
9.095179343E0,1.615155339E0,7.032505512E0,6.257231236E0
9.116022849E0,1.246660590E0,7.121040344E0,6.288337708E0
9.136835837E0,1.562513232E0,7.171289444E0,6.240481377E0
9.157648825E0,1.275374413E0,7.190432072E0,6.369693756E0
9.178492331E0,1.275374413E0,7.173682213E0,6.348158360E0
9.199305319E0,1.289731383E0,7.058826923E0,6.446264267E0
9.220148825E0,1.012163997E0,7.068397999E0,6.484549522E0
9.240961814E0,1.246660590E0,7.068397999E0,6.489335060E0
9.261805319E0,9.355936646E-1,7.140182972E0,6.553941250E0
9.282648825E0,1.313659668E0,7.109076023E0,6.506084919E0
9.303492331E0,1.148554921E0,7.070790768E0,6.429514408E0
9.324305319E0,1.395015597E0,7.027719975E0,6.331408501E0
9.345148825E0,1.356730461E0,7.080362320E0,6.381658077E0
9.365961814E0,1.397408366E0,7.137789726E0,6.326622963E0
9.386805319E0,1.385444283E0,7.190432072E0,6.422336102E0
9.407648825E0,1.263410330E0,7.245467186E0,6.396014690E0
9.428461814E0,1.359123230E0,7.180860519E0,6.329015732E0
9.449305319E0,1.172483087E0,7.104290485E0,6.266802311E0
9.470118308E0,1.289731383E0,7.089933395E0,6.338587284E0
9.490931296E0,1.179661512E0,7.135396957E0,6.374479294E0
9.511744284E0,1.320838094E0,7.063612461E0,6.343372822E0
9.532587790E0,1.292124271E0,7.042077065E0,6.376872540E0
9.553400778E0,1.395015597E0,7.063612461E0,6.374479294E0
9.574213767E0,1.411765337E0,7.020541668E0,6.379265308E0
9.595026755E0,1.392622828E0,6.991827965E0,6.379265308E0
9.615839743E0,1.406979680E0,7.020541668E0,6.345765591E0
9.636683249E0,1.246660590E0,7.070790768E0,6.384050846E0
9.657496237E0,1.220339537E0,7.042077065E0,6.412764549E0
9.678309226E0,1.115055323E0,7.082755089E0,6.403193474E0
9.699152731E0,1.141376376E0,7.101897717E0,6.384050846E0
9.719965720E0,1.083948612E0,7.128218651E0,6.398407936E0
9.740778708E0,1.019342422E0,7.166503906E0,6.362515450E0
9.761591696E0,1.050449133E0,7.195217609E0,6.355337143E0
9.782435202E0,1.014556766E0,7.183253765E0,6.372086525E0
9.803248190E0,1.036092162E0,7.197610378E0,6.364908218E0
9.824091696E0,9.930213690E-1,7.185646534E0,6.393621922E0
9.844904685E0,1.043270707E0,7.135396957E0,6.412764549E0
9.865717673E0,1.012163997E0,7.106683254E0,6.412764549E0
9.886561179E0,1.028913736E0,7.173682213E0,6.494120598E0
9.907374167E0,1.064806104E0,7.137789726E0,6.460621357E0
9.928187155E0,1.086341500E0,7.054041386E0,6.403193474E0
9.949030661E0,1.086341500E0,7.030112743E0,6.410371780E0
9.969843649E0,1.074377418E0,7.042077065E0,6.403193474E0
9.990656638E0,1.071984529E0,7.089933395E0,6.400800705E0
1.001150014E1,1.069591761E0,7.123433113E0,6.379265308E0
1.003231313E1,1.057627559E0,7.152146816E0,6.412764549E0
1.005315664E1,1.040877819E0,7.180860519E0,6.369693756E0
1.007396963E1,1.055234790E0,7.183253765E0,6.321837425E0
1.009478261E1,1.036092162E0,7.188039303E0,6.360122681E0
1.011562612E1,1.040877819E0,7.152146816E0,6.333801746E0
1.013643911E1,1.091127157E0,7.133004189E0,6.350551128E0
1.015725210E1,1.107876897E0,7.089933395E0,6.348158360E0
1.017806508E1,1.119840980E0,7.121040344E0,6.348158360E0
1.019890859E1,1.136590719E0,7.128218651E0,6.376872540E0
1.021972158E1,1.155733347E0,7.116254330E0,6.343372822E0
1.024056508E1,1.060020447E0,7.121040344E0,6.278766632E0
1.026137807E1,1.122233868E0,7.168896675E0,6.345765591E0
1.028222158E1,1.069591761E0,7.195217609E0,6.400800705E0
1.030306508E1,1.100698471E0,7.183253765E0,6.374479294E0
1.032387807E1,1.086341500E0,7.099504948E0,6.400800705E0
1.034469106E1,1.201196909E0,7.039684296E0,6.388836384E0
1.036553457E1,1.201196909E0,7.037291527E0,6.355337143E0
1.038634756E1,1.203589797E0,7.056434155E0,6.391229153E0
1.040719106E1,1.251446247E0,7.054041386E0,6.386443615E0
1.042800405E1,1.225125194E0,7.068397999E0,6.369693756E0
1.044881704E1,1.249053478E0,7.027719975E0,6.357729912E0
1.046966054E1,1.237089276E0,7.101897717E0,6.338587284E0
1.049047353E1,1.162911773E0,7.070790768E0,6.333801746E0
1.051128652E1,1.112662554E0,7.039684296E0,6.398407936E0
1.053209951E1,1.100698471E0,7.082755089E0,6.329015732E0
1.055294302E1,1.069591761E0,7.183253765E0,6.302694798E0
1.057378652E1,1.088734269E0,7.156932354E0,6.290730953E0
1.059459951E1,1.060020447E0,7.207181931E0,6.178267956E0
1.061544302E1,9.930213690E-1,7.286144733E0,6.192625046E0
1.063628652E1,1.115055323E0,7.319644451E0,6.266802311E0
1.065709951E1,1.062413216E0,7.324429989E0,6.206982136E0
1.067791250E1,1.196411371E0,7.255038261E0,6.154339790E0
1.069872548E1,1.117448211E0,7.168896675E0,6.254838467E0
1.071956899E1,1.134197950E0,7.137789726E0,6.345765591E0
1.074041250E1,1.083948612E0,7.051648140E0,6.422336102E0
1.076122548E1,9.858429432E-1,6.946363926E0,6.498906136E0
1.078206899E1,1.057627559E0,6.924828529E0,6.506084919E0
1.080288198E1,9.188438654E-1,7.092326164E0,6.577869415E0
1.082375600E1,1.119840980E0,6.920042992E0,6.532405853E0
1.084456899E1,9.930213690E-1,6.855436802E0,6.575476646E0
1.086538198E1,1.000199914E0,6.924828529E0,6.561119556E0
1.088622548E1,1.045663476E0,6.977470875E0,6.577869415E0
1.090703847E1,9.667003751E-1,7.020541668E0,6.589833736E0
1.092785146E1,1.119840980E0,7.073183537E0,6.491727829E0
1.094869497E1,9.092726111E-1,7.135396957E0,6.525227547E0
1.096950796E1,1.004985452E0,7.113861561E0,6.544369698E0
1.099032094E1,8.494520187E-1,7.106683254E0,6.541976929E0
1.101116445E1,9.475577474E-1,7.101897717E0,6.513263226E0
1.103200796E1,9.164510965E-1,7.104290485E0,6.482156754E0
1.105282094E1,9.738788009E-1,7.089933395E0,6.446264267E0
1.107363393E1,9.978070259E-1,7.099504948E0,6.415157318E0
1.109447744E1,1.079162955E0,7.109076023E0,6.412764549E0
1.111529043E1,1.038485050E0,7.092326164E0,6.419943333E0
1.113613393E1,1.091127157E0,7.089933395E0,6.448657036E0
1.115694692E1,1.081555843E0,7.070790768E0,6.443871498E0
1.117779043E1,1.129412293E0,7.030112743E0,6.372086525E0
1.119860342E1,1.148554921E0,6.996613503E0,6.391229153E0
1.121944692E1,1.107876897E0,7.030112743E0,6.400800705E0
1.124025991E1,1.129412293E0,7.030112743E0,6.384050846E0
1.126107290E1,1.148554921E0,7.015756130E0,6.391229153E0
1.128191640E1,1.146162033E0,7.061219692E0,6.372086525E0
1.130272939E1,1.141376376E0,7.094718933E0,6.362515450E0
1.132354238E1,1.086341500E0,7.085147858E0,6.391229153E0
1.134438589E1,1.079162955E0,7.082755089E0,6.367300987E0
1.136519887E1,1.004985452E0,7.111468792E0,6.374479294E0
1.138601186E1,9.882357717E-1,7.133004189E0,6.388836384E0
1.140682485E1,9.595218897E-1,7.154539585E0,6.355337143E0
1.142763784E1,9.332008362E-1,7.216753006E0,6.314659119E0
1.144848135E1,9.595218897E-1,7.214360237E0,6.326622963E0
1.146929433E1,9.379864931E-1,7.202396393E0,6.326622963E0
1.149010732E1,9.690931439E-1,7.197610378E0,6.293123722E0
1.151092031E1,1.004985452E0,7.185646534E0,6.302694798E0
1.153173330E1,1.012163997E0,7.166503906E0,6.319444656E0
1.155257680E1,1.036092162E0,7.171289444E0,6.300302029E0
1.157338979E1,1.004985452E0,7.137789726E0,6.319444656E0
1.159420278E1,1.024128079E0,7.104290485E0,6.367300987E0
1.161501577E1,9.906286001E-1,7.111468792E0,6.357729912E0
1.163585927E1,9.930213690E-1,7.109076023E0,6.364908218E0
1.165667226E1,9.762716293E-1,7.092326164E0,6.405586243E0
1.167748525E1,9.667003751E-1,7.111468792E0,6.396014690E0
1.169829824E1,9.547362328E-1,7.125825882E0,6.403193474E0
1.171911123E1,8.997012973E-1,7.147361279E0,6.417550564E0
1.173995473E1,9.236295223E-1,7.125825882E0,6.405586243E0
1.176076772E1,8.757730722E-1,7.106683254E0,6.407979012E0
1.178161123E1,8.422735929E-1,7.118647575E0,6.448657036E0
1.180242422E1,8.135597110E-1,7.149754047E0,6.453442574E0
1.182323720E1,8.398807645E-1,7.135396957E0,6.451049805E0
1.184408071E1,8.303094506E-1,7.130611420E0,6.453442574E0
1.186489370E1,8.733802438E-1,7.125825882E0,6.441478729E0
1.188570669E1,9.020941257E-1,7.123433113E0,6.431907177E0
1.190655019E1,9.499505758E-1,7.080362320E0,6.407979012E0
1.192736318E1,9.571290612E-1,7.106683254E0,6.427121639E0
1.194817617E1,9.619147182E-1,7.099504948E0,6.429514408E0
1.196901968E1,9.978070259E-1,7.073183537E0,6.427121639E0
1.198983266E1,9.882357717E-1,7.061219692E0,6.474977970E0
1.201064565E1,1.038485050E0,7.056434155E0,6.470192432E0
1.203145864E1,1.038485050E0,7.046862602E0,6.467799664E0
1.205230215E1,1.021735311E0,7.097112179E0,6.458228111E0
1.207311513E1,1.021735311E0,7.116254330E0,6.429514408E0
1.209392812E1,9.930213690E-1,7.111468792E0,6.460621357E0
1.211477163E1,9.906286001E-1,7.118647575E0,6.482156754E0
1.213558462E1,9.499505758E-1,7.221538544E0,6.608976364E0
1.215639760E1,1.040877819E0,7.171289444E0,6.635297298E0
1.217724111E1,1.095912814E0,6.912864685E0,6.453442574E0
1.219805410E1,1.213161111E0,6.848258495E0,6.661618233E0
1.221886709E1,1.320838094E0,6.427121639E0,5.426921844E0
1.223971059E1,1.095912814E0,7.393822193E0,5.929414749E0
1.226052358E1,1.105484009E0,7.946564198E0,6.675975323E0
1.228133657E1,8.039883971E-1,7.771887779E0,6.735795975E0
1.230214956E1,1.122233868E0,7.226324558E0,6.826723099E0
1.232299306E1,9.427721500E-1,7.137789726E0,7.097112179E0
1.234380605E1,1.201196909E0,7.168896675E0,6.884150982E0
1.236461904E1,9.332008362E-1,7.140182972E0,6.800402164E0
1.238546255E1,9.906286001E-1,7.121040344E0,6.628118515E0
1.240627553E1,9.882357717E-1,7.173682213E0,6.546762943E0
1.242708852E1,9.499505758E-1,7.216753006E0,6.525227547E0
1.244793203E1,9.379864931E-1,7.255038261E0,6.470192432E0
1.246871450E1,7.992027402E-1,7.295716286E0,6.407979012E0
1.248955801E1,8.685946465E-1,7.238288403E0,6.419943333E0
1.251037099E1,8.446664214E-1,7.216753006E0,6.384050846E0
1.253121450E1,8.925228715E-1,7.123433113E0,6.360122681E0
1.255202749E1,9.020941257E-1,7.094718933E0,6.412764549E0
1.257284048E1,9.475577474E-1,7.046862602E0,6.415157318E0
1.259365346E1,1.009771109E0,7.003791809E0,6.405586243E0
1.261446645E1,1.019342422E0,7.001399040E0,6.448657036E0
1.263530996E1,1.040877819E0,7.051648140E0,6.427121639E0
1.265612295E1,1.031306505E0,7.063612461E0,6.403193474E0
1.267693594E1,1.052842021E0,7.077969551E0,6.412764549E0
1.269777944E1,1.045663476E0,7.123433113E0,6.374479294E0
1.271859243E1,1.050449133E0,7.156932354E0,6.360122681E0
1.273940542E1,1.016949654E0,7.164111137E0,6.362515450E0
1.276021841E1,1.012163997E0,7.144968510E0,6.388836384E0
1.278106191E1,9.762716293E-1,7.121040344E0,6.376872540E0
1.280187490E1,9.858429432E-1,7.101897717E0,6.393621922E0
1.282268789E1,9.882357717E-1,7.089933395E0,6.396014690E0
1.284350088E1,9.930213690E-1,7.085147858E0,6.386443615E0
1.286434438E1,9.954141974E-1,7.104290485E0,6.388836384E0
1.288515737E1,9.930213690E-1,7.104290485E0,6.388836384E0
1.290597036E1,9.427721500E-1,7.080362320E0,6.429514408E0
1.292681386E1,7.728816867E-1,7.166503906E0,6.458228111E0
1.294762685E1,1.004985452E0,7.085147858E0,6.331408501E0
1.296843984E1,9.116654396E-1,7.030112743E0,6.522834301E0
1.298925283E1,1.067198873E0,7.255038261E0,6.250052929E0
1.301009634E1,9.164510965E-1,7.204789162E0,6.333801746E0
1.303090932E1,8.949156404E-1,7.121040344E0,6.431907177E0
1.305172231E1,9.260223508E-1,7.166503906E0,6.352943897E0
1.307253530E1,9.332008362E-1,7.137789726E0,6.398407936E0
1.309334829E1,9.690931439E-1,7.118647575E0,6.429514408E0
1.311419179E1,9.667003751E-1,7.149754047E0,6.384050846E0
1.313500478E1,9.619147182E-1,7.111468792E0,6.467799664E0
1.315581777E1,9.571290612E-1,7.106683254E0,6.422336102E0
1.317666128E1,8.853443861E-1,7.128218651E0,6.372086525E0
1.319750478E1,9.571290612E-1,7.109076023E0,6.415157318E0
1.321831777E1,9.738788009E-1,7.099504948E0,6.407979012E0
1.323913076E1,9.260223508E-1,7.089933395E0,6.427121639E0
1.325994375E1,9.188438654E-1,7.116254330E0,6.419943333E0
1.328075674E1,8.973084688E-1,7.159325123E0,6.355337143E0
1.330156972E1,9.571290612E-1,7.147361279E0,6.381658077E0
1.332241323E1,9.810572863E-1,7.128218651E0,6.400800705E0
1.334322622E1,9.619147182E-1,7.123433113E0,6.396014690E0
1.336403921E1,9.379864931E-1,7.113861561E0,6.407979012E0
1.338485219E1,9.858429432E-1,7.128218651E0,6.396014690E0
1.340566518E1,1.000199914E0,7.149754047E0,6.329015732E0
1.342650869E1,1.048056364E0,7.147361279E0,6.333801746E0
1.344732168E1,1.138983607E0,7.142575741E0,5.960521221E0
1.346813467E1,1.093519926E0,6.836294174E0,6.573083878E0
1.348894765E1,1.033699393E0,7.125825882E0,6.190232277E0
1.351744907E1,-1.962114573E-1,7.066005230E0,7.082755089E0
1.353826261E1,5.982056856E-1,7.058826923E0,6.561119556E0
1.355910611E1,1.052841991E-1,7.245467186E0,6.197410583E0
1.357991910E1,2.656033039E-1,6.953542709E0,6.886543751E0
1.360073209E1,2.679961324E-1,7.164111137E0,6.642475605E0
1.362157559E1,1.459621787E-1,7.302894592E0,6.441478729E0
1.364238858E1,3.780659735E-1,7.106683254E0,6.723831654E0
1.366320157E1,1.339980662E-1,7.238288403E0,6.530013084E0
1.368404508E1,5.024927258E-1,7.365108013E0,6.254838467E0
1.370485806E1,3.110669553E-1,7.233502865E0,6.489335060E0
1.372570157E1,7.513462901E-1,7.250252724E0,6.381658077E0
1.374651456E1,6.436693072E-1,7.298109055E0,6.142375946E0
1.376732755E1,8.829515576E-1,7.015756130E0,6.429514408E0
1.378814054E1,9.882357717E-1,7.161718369E0,6.352943897E0
1.380898404E1,8.494520187E-1,7.341179848E0,6.242874146E0
1.382979703E1,1.246660590E0,6.865008354E0,6.546762943E0
1.385061002E1,7.896314859E-1,6.728617191E0,6.838686943E0
1.387145352E1,7.848458290E-1,6.742974281E0,6.317051888E0
1.389226651E1,4.378865361E-1,6.841079712E0,6.484549522E0
1.391307950E1,-1.339980662E-1,7.166503906E0,6.549155712E0
1.393389249E1,3.110669367E-2,7.515855789E0,6.314659119E0
1.395473599E1,-9.140582681E-1,7.503891945E0,7.077969551E0
1.397554898E1,-1.052842021E0,7.195217609E0,7.625925541E0
1.399636197E1,-1.433300734E0,7.121040344E0,7.554141045E0
1.401717496E1,-1.643869162E0,7.791030407E0,6.991827965E0
1.403798795E1,-1.569691658E0,8.580661774E0,7.061219692E0
1.405880094E1,-1.545763373E0,8.611768723E0,6.958328247E0
1.407964444E1,-1.442872047E0,7.905886173E0,7.369893551E0
1.410045743E1,-1.497906923E0,7.202396393E0,7.551748276E0
1.412127042E1,-1.349551916E0,7.051648140E0,7.331608772E0
1.414211392E1,-1.105484009E0,7.077969551E0,7.013363361E0
1.416292691E1,7.657032460E-2,6.850651264E0,6.541976929E0
1.418373990E1,2.005185366E0,6.530013084E0,6.185446739E0
1.420458341E1,2.014756680E0,6.501298904E0,4.855037212E0
1.422539640E1,4.043870449E0,6.707081795E0,4.572684288E0
1.424623990E1,3.534198999E0,7.111468792E0,5.060820103E0
1.426705289E1,4.419543266E0,7.116254330E0,4.744967461E0
1.428786588E1,4.465006828E0,7.039684296E0,4.780859470E0
1.430867887E1,3.680161238E0,7.161718369E0,5.058426857E0
1.432952237E1,4.189832687E0,6.898507595E0,5.182853699E0
1.435033536E1,2.974278450E0,6.367300987E0,5.553741455E0
1.437117887E1,3.213560820E0,5.733202934E0,5.871986866E0
1.439199185E1,2.596212626E0,6.003592014E0,6.197410583E0
1.441280484E1,2.301895380E0,6.429514408E0,6.288337708E0
1.443364835E1,1.679761529E0,6.809973240E0,6.582654953E0
1.445446134E1,7.202396393E-1,6.934400082E0,6.979863644E0
1.447527432E1,7.441678643E-1,6.946363926E0,6.781259537E0
1.449611783E1,4.019941986E-1,7.056434155E0,6.781259537E0
1.451693082E1,7.465606928E-1,7.125825882E0,6.723831654E0
1.453774381E1,5.862415433E-1,7.396214962E0,6.233303070E0
1.455855680E1,9.020941257E-1,7.635497093E0,5.943771362E0
1.457936978E1,1.383051515E0,7.750352383E0,5.759523869E0
1.460021329E1,1.205982566E0,7.913064480E0,5.627918720E0
1.462102628E1,1.488335729E0,7.819744587E0,5.496313572E0
1.464183927E1,1.366301775E0,7.712067604E0,5.716453075E0
1.466265225E1,1.433300734E0,7.597211838E0,5.769095421E0
1.468349576E1,1.466800332E0,7.491927624E0,5.900700569E0
1.470430875E1,1.201196909E0,7.243073940E0,6.070590973E0
1.472512174E1,1.129412293E0,7.087540627E0,6.111268997E0
1.474593473E1,9.140582681E-1,7.087540627E0,6.295516491E0
1.476674771E1,1.014556766E0,7.025327206E0,6.372086525E0
1.478756070E1,9.906286001E-1,7.025327206E0,6.494120598E0
1.480840421E1,1.055234790E0,7.025327206E0,6.534798622E0
1.482921720E1,1.074377418E0,7.042077065E0,6.396014690E0
1.485003018E1,1.086341500E0,7.178467751E0,6.491727829E0
1.487087369E1,1.028913736E0,7.173682213E0,6.498906136E0
1.489168668E1,8.087740541E-1,6.821937561E0,5.977271080E0
1.491253018E1,8.494520187E-1,6.812366009E0,6.235695839E0
1.493334317E1,7.728816867E-1,6.989434719E0,6.606583118E0
1.495415616E1,8.518448472E-1,7.286144733E0,6.434299946E0
1.497499967E1,1.000199914E0,7.135396957E0,6.269195557E0
1.499581265E1,9.858429432E-1,7.089933395E0,6.391229153E0
1.501662564E1,1.098305583E0,7.324429989E0,5.974878311E0
1.503743863E1,1.160519004E0,7.391428947E0,6.154339790E0
1.505828214E1,1.115055323E0,7.238288403E0,6.604190350E0
1.507909512E1,9.547362328E-1,7.300501823E0,6.771687984E0
1.509990811E1,4.905286431E-1,7.972885132E0,6.984649181E0
1.512075162E1,1.129412293E0,6.817151546E0,6.290730953E0
1.514156461E1,7.226324677E-1,7.412964344E0,8.456234932E0
1.516240811E1,1.122233868E0,7.680960655E0,6.429514408E0
1.518322110E1,6.556333899E-1,6.943971157E0,6.111268997E0
1.520403409E1,9.068797827E-1,8.267202377E0,7.429714203E0
1.522484708E1,9.116654396E-1,8.001599312E0,8.145168304E0
1.524569058E1,9.690931439E-1,5.261816978E0,4.299902439E0
1.526650357E1,9.475577474E-1,6.558726788E0,5.864808083E0
1.528734708E1,5.120640397E-1,8.898907661E0,7.118647575E0
1.530816007E1,1.143769264E0,8.042277336E0,6.618547440E0
1.532897306E1,6.125625968E-1,5.673382282E0,6.290730953E0
1.534978604E1,6.628118753E-1,7.745566845E0,5.828916073E0
1.537062955E1,5.120640397E-1,9.052047729E0,8.051848412E0
1.539144254E1,6.364908218E-1,6.104090691E0,5.759523869E0
1.541225553E1,7.872386575E-1,7.149754047E0,5.757131100E0
1.543306851E1,3.876372576E-1,8.499305725E0,7.159325123E0
1.545391202E1,8.829515576E-1,5.938985825E0,5.592026711E0
1.547472501E1,4.666004181E-1,7.336394310E0,6.762116909E0
1.549553800E1,7.058826685E-1,7.601997375E0,6.912864685E0
1.551635098E1,9.643075466E-1,6.384050846E0,5.831308842E0
1.553719449E1,7.848458290E-1,7.137789726E0,6.628118515E0
1.555800748E1,9.260223508E-1,6.740581512E0,6.101697922E0
1.557882047E1,7.585247755E-1,7.334001541E0,6.747759819E0
1.559966397E1,8.709874153E-1,6.860222340E0,6.252445698E0
1.562047696E1,7.274180651E-1,7.367500782E0,6.754938126E0
1.564128995E1,6.077769399E-1,7.204789162E0,5.972485542E0
1.566210294E1,7.082754970E-1,7.566105366E0,6.458228111E0
1.568294644E1,5.647061467E-1,7.288537979E0,6.070590973E0
1.570375943E1,7.800601721E-1,7.657032490E0,6.281159401E0
1.572457242E1,5.790630579E-1,7.599604607E0,6.099305153E0
1.574541593E1,6.364908218E-1,7.520641804E0,6.795616150E0
1.576622891E1,5.120640397E-1,7.264609337E0,6.714260101E0
1.578707242E1,4.666004181E-1,7.046862602E0,6.407979012E0
1.580788541E1,5.048855543E-1,7.104290485E0,6.805187702E0
1.582872891E1,4.450650215E-1,6.893722057E0,6.374479294E0
1.584954190E1,5.862415433E-1,7.298109055E0,6.573083878E0
1.587035489E1,5.623133183E-1,7.336394310E0,6.759724140E0
1.589116788E1,5.527420044E-1,7.058826923E0,6.826723099E0
1.591201138E1,6.484549642E-1,6.656832695E0,6.446264267E0
1.593282437E1,5.551348329E-1,7.257431030E0,6.534798622E0
1.595366788E1,6.269195080E-1,7.508677483E0,6.774080753E0
1.597448087E1,7.298108935E-1,6.778866768E0,6.616154671E0
1.599529386E1,8.015955687E-1,6.477370739E0,5.876772404E0
1.601610684E1,6.388836503E-1,6.376872540E0,5.790630817E0
1.603695035E1,5.670989752E-1,6.530013084E0,6.087340832E0
1.605776334E1,5.192425251E-1,7.094718933E0,6.484549522E0
1.607857633E1,5.862415433E-1,6.096911907E0,5.194818020E0
1.609941983E1,6.532405615E-1,6.927221775E0,7.054041386E0
1.612023282E1,5.958128572E-1,6.017949104E0,5.022534847E0
1.614104581E1,5.694918036E-1,6.541976929E0,5.328815937E0
1.616188932E1,6.843472719E-1,7.805387497E0,8.470592499E0
1.618270230E1,6.077769399E-1,5.737988472E0,4.943571568E0
1.620351529E1,7.513462901E-1,6.821937561E0,6.111268997E0
1.622432828E1,8.015955687E-1,8.528019905E0,8.360522270E0
1.624517178E1,1.083948612E0,6.331408501E0,6.094519138E0
1.626598477E1,5.599204898E-1,5.285745144E0,5.685346603E0
1.628679776E1,3.900300860E-1,7.484749317E0,6.941578388E0
1.630761075E1,5.982056856E-1,8.429914474E0,5.706882000E0
1.632842374E1,5.240281820E-1,8.214560509E0,7.444071293E0
1.634923673E1,1.079162955E0,7.257431030E0,8.226524353E0
1.637004972E1,7.322037220E-1,6.305087566E0,7.037291527E0
1.639086270E1,7.441678643E-1,5.637490273E0,5.702096462E0
1.641170621E1,4.498506486E-1,5.991627693E0,6.333801746E0
1.643251920E1,3.876372576E-1,6.551548481E0,6.434299946E0
1.645333219E1,3.326023519E-1,6.991827965E0,6.106483459E0
1.647414517E1,1.148554832E-1,7.491927624E0,6.429514408E0
1.649498868E1,3.948157430E-1,7.551748276E0,5.869594097E0
1.651580167E1,3.110669367E-2,7.537391186E0,6.025127411E0
1.653661466E1,4.067798555E-1,7.300501823E0,5.802595139E0
1.655742764E1,2.608176768E-1,6.920042992E0,5.718846321E0
1.657824063E1,3.804588020E-1,6.766902447E0,5.544169903E0
1.659905362E1,5.096712112E-1,6.647261143E0,5.735595703E0
1.661989713E1,7.537391186E-1,6.699903488E0,6.630511761E0
1.664071012E1,1.153340459E0,6.759724140E0,7.546962738E0
1.666152310E1,1.277767301E0,7.262216568E0,8.685946465E0
1.668233609E1,1.265803218E0,7.525427341E0,8.571090698E0
1.670317960E1,9.427721500E-1,7.721638680E0,7.008577347E0
1.672399259E1,9.954141974E-1,7.630711555E0,5.510670662E0
1.674480557E1,1.107876897E0,7.293323517E0,4.867001057E0
1.676564908E1,1.323230863E0,7.159325123E0,4.424329281E0
1.678646207E1,5.431707501E-1,6.946363926E0,4.357329845E0
1.680727506E1,2.656033039E-1,7.429714203E0,5.553741455E0
1.682808804E1,4.139583111E-1,7.133004189E0,6.683153629E0
1.684893155E1,9.762716293E-1,7.171289444E0,8.408378601E0
1.686974454E1,9.499505758E-1,7.475177765E0,8.961120605E0
1.689055753E1,7.441678643E-1,7.625925541E0,7.398607731E0
1.691137052E1,5.527420044E-1,7.680960655E0,6.190232277E0
1.693218350E1,8.398807645E-1,7.719245911E0,5.213960648E0
1.695299649E1,1.184447169E0,7.750352383E0,4.764110088E0
1.697384000E1,1.342373490E0,7.834101200E0,5.235496044E0
1.699465299E1,1.399801254E0,7.970492363E0,5.383851051E0
1.701546598E1,1.067198873E0,8.161917686E0,6.058627129E0
1.703627896E1,8.925228715E-1,8.161917686E0,5.560919762E0
1.705709195E1,4.522434771E-1,8.279166222E0,5.804987907E0
1.707793546E1,6.245267391E-1,8.298309326E0,5.379065514E0
1.709874845E1,2.727817893E-1,8.307880402E0,5.462814331E0
1.711956143E1,6.029912829E-1,8.181060791E0,5.173282623E0
1.714040494E1,2.608176768E-1,8.358129501E0,5.402993679E0
1.716121793E1,8.063812256E-1,8.415556908E0,5.137390137E0
1.718203092E1,5.814558864E-1,8.401200294E0,5.534598827E0
1.720284390E1,1.155733347E0,7.994420528E0,4.783252239E0
1.722365689E1,1.067198873E0,8.415556908E0,4.998606682E0
1.724446988E1,1.165304661E0,8.633303642E0,4.579862595E0
1.726531339E1,1.220339537E0,8.176275253E0,5.149354458E0
1.728612638E1,1.237089276E0,8.145168304E0,7.073183537E0
1.730693936E1,9.858429432E-1,7.814958572E0,6.396014690E0
1.732775235E1,1.182054400E0,7.176074982E0,6.075376511E0
1.734856534E1,7.489534616E-1,7.171289444E0,5.577669621E0
1.736940885E1,6.867401004E-1,7.570890903E0,4.754538536E0
1.739022183E1,3.661018610E-1,8.269595146E0,5.510670662E0
1.741103482E1,6.939185411E-2,9.042476654E0,6.089733601E0
1.743187833E1,8.422735929E-1,8.817551613E0,3.905086517E0
1.745269132E1,8.709874153E-1,9.037691116E0,3.479164124E0
1.747350430E1,5.958128572E-1,9.597611427E0,6.084948063E0
1.749431729E1,9.332008362E-1,8.561519623E0,6.508477688E0
1.751516080E1,1.440479279E0,6.496513367E0,4.381258488E0
1.753597379E1,5.814558864E-1,6.022734642E0,3.002992392E0
1.755678678E1,6.867401004E-1,6.695117950E0,4.266402721E0
1.757759976E1,4.857429862E-1,7.953742504E0,4.311866283E0
1.759844327E1,8.255237937E-1,9.611968994E0,5.235496044E0
1.761925626E1,1.024128079E0,9.990034103E0,7.747959614E0
1.764006925E1,2.871387303E-1,8.123632431E0,5.922235966E0
1.766091275E1,6.771687865E-1,6.041877270E0,1.792224169E0
1.768172574E1,2.847459018E-1,6.759724140E0,6.398407936E0
1.770256925E1,1.198804140E0,8.604590416E0,6.668796539E0
1.772338224E1,9.571290612E-1,9.975677490E0,3.914657831E0
1.774419522E1,1.225125194E0,8.999405861E0,6.640082836E0
1.776500821E1,1.648654819E0,8.037490845E0,6.044270039E0
1.778585172E1,2.679961324E-1,7.817351341E0,2.543570518E0
1.780666471E1,7.633104324E-1,7.082755089E0,1.969292998E0
1.782747769E1,9.092725813E-2,7.819744587E0,1.971685886E0
1.784829068E1,9.212366939E-1,8.968298912E0,2.902493954E0
1.786913419E1,5.144568682E-1,1.013360405E1,4.634897232E0
1.788994718E1,1.316052437E0,6.479763508E0,5.237888813E0
1.791076016E1,3.732803464E-1,8.427521706E0,7.855636597E0
1.793157315E1,1.268195957E-1,6.829115868E0,3.220739365E0
1.795241666E1,8.542376757E-1,7.077969551E0,3.297309637E0
1.797322965E1,1.088734269E0,6.908079147E0,6.120840549E0
1.799404264E1,2.493321180E0,6.790830612E0,3.739981890E0
1.801485562E1,1.261017561E0,8.305487633E0,3.732803345E0
1.803566861E1,1.730010748E0,8.843872070E0,4.417150497E0
1.805651212E1,6.364908218E-1,8.982656479E0,5.046463013E0
1.807732511E1,2.617748022E0,7.841279984E0,5.276174068E0
1.809813809E1,1.253839016E0,7.970492363E0,4.845465660E0
1.811895108E1,2.170290232E0,7.408178806E0,4.130012035E0
1.813976407E1,-5.335994363E-1,8.319844246E0,4.051048756E0
1.816060758E1,2.021935225E0,9.099904060E0,6.163911343E0
1.818142056E1,-4.067798331E-2,7.432106972E0,3.864408493E0
1.820223355E1,2.091326952E0,5.532206059E0,6.752545357E0
1.822307706E1,1.741974831E0,8.070990562E0,5.477170944E0
1.824389005E1,9.762716293E-1,1.039202881E1,7.877171993E0
1.826470304E1,3.093919754E0,8.958727837E0,6.649653912E0
1.828554654E1,9.882357717E-1,5.773880959E0,3.177668571E0
1.830635953E1,1.710868239E0,6.618547440E0,5.190032482E0
1.832717252E1,3.445664644E-1,7.721638680E0,4.359723091E0
1.834801602E1,1.741974831E0,8.822337151E0,5.630311489E0
1.836882901E1,1.024128079E0,6.608976364E0,5.178068161E0
1.838964200E1,9.068797827E-1,7.743174076E0,8.618947029E0
1.841045499E1,1.148554832E-1,8.764909744E0,7.511070251E0
1.843129849E1,6.652047038E-1,5.513063431E0,4.505684853E0
1.845211148E1,2.897708178E0,6.197410583E0,2.287538528E0
1.847292447E1,1.737189293E0,7.398607731E0,4.242474556E0
1.849373746E1,2.093719721E0,9.932606697E0,4.388436794E0
1.851458096E1,1.995614052E0,8.609375954E0,5.584847927E0
1.853539395E1,1.579262912E-1,6.051448345E0,5.644668579E0
1.855623746E1,3.546163082E0,7.585247993E0,6.860222340E0
1.857705045E1,-5.766702294E-1,1.007378292E1,6.178267956E0
1.859786344E1,6.364908218E-1,7.874779224E0,8.396414757E0
1.861870694E1,-1.880758643E0,6.362515450E0,6.606583118E0
1.863951993E1,-2.797209740E0,8.185846329E0,6.003592014E0
1.866033292E1,1.648654819E0,9.542576790E0,4.816751957E0
1.868117642E1,1.758724689E0,6.632904530E0,5.979663849E0
1.870198941E1,2.935993433E0,8.530412674E0,7.190432072E0
1.872280240E1,1.801795483E0,5.833701611E0,1.009771109E0
1.874364591E1,-2.153540403E-1,6.754938126E0,5.015356064E0
1.876445890E1,1.263410330E0,7.867600918E0,5.802595139E0
1.878527188E1,1.555334687E0,5.747560024E0,1.060020447E0
1.880611539E1,-7.609176040E-1,7.745566845E0,3.888336897E0
1.882692838E1,-8.877372146E-1,8.365307808E0,5.180460930E0
1.884774136E1,1.313659668E0,5.565705299E0,4.685146809E0
1.886855435E1,-4.989035130E0,6.123233318E0,4.512863636E0
1.888936734E1,-7.728816867E-1,5.941378593E0,6.515655994E0
1.891021085E1,-5.048855543E-1,8.257631302E0,5.838487148E0
1.893102384E1,-1.079162955E0,1.074377346E1,7.092326164E0
1.895183682E1,3.639483213E0,6.659225464E0,4.448257446E0
1.897264981E1,1.931007862E0,6.776473522E0,3.038884640E0
1.899349332E1,2.213361025E0,1.018385315E1,4.259224415E0
1.901430631E1,-1.430907965E0,6.802794933E0,2.057827473E0
1.903511930E1,-7.250252366E-1,8.484949112E0,7.295716286E0
1.905596280E1,1.995614052E0,8.372486115E0,5.120640278E0
1.907677579E1,-5.144568682E-1,5.474778175E0,6.276373863E0
1.909758878E1,4.823930264E0,7.590033531E0,7.231110096E0
1.911840177E1,1.153340459E0,9.370293617E0,6.482156754E0
1.913921475E1,1.378265858E0,6.139982700E0,9.212366939E-1
1.916005826E1,-1.529013634E0,8.226524353E0,5.290530682E0
1.918087125E1,3.347558975E0,8.178668022E0,6.386443615E0
1.920168424E1,1.395015597E0,5.862415314E0,3.323630571E0
1.922252774E1,4.115654826E-1,8.262416840E0,3.668197155E0
1.924334073E1,2.041077614E0,7.027719975E0,3.964907169E0
1.926415372E1,-3.122633457E0,4.457828522E0,4.158725739E0
1.928499722E1,7.393822074E-1,4.596612453E0,7.645068169E0
1.930581021E1,6.628118753E-1,1.026760197E1,8.422736168E0
1.932665372E1,-2.325823545E0,8.621339798E0,8.370093346E0
1.934746671E1,1.409372568E0,5.242674351E0,6.620940208E0
1.936827970E1,-1.004985496E-1,8.147561073E0,9.315258980E0
1.938909268E1,2.261217356E0,1.291884899E1,4.208974838E0
1.940990567E1,3.431307554E0,6.692724705E0,3.536591768E0
1.943071866E1,2.335394859E0,9.023334503E0,9.126225471E0
1.945156217E1,7.657032609E-1,6.905686378E0,6.482156754E0
1.947237515E1,8.733802438E-1,1.050927734E1,5.663811207E0
1.949318814E1,-2.474178553E0,5.924628735E0,5.079962254E0
1.951403165E1,-7.010970116E-1,8.042277336E0,7.908278942E0
1.953484464E1,-1.746760458E-1,3.996013880E0,5.876772404E0
1.955565763E1,-2.852244616E0,5.611168861E0,4.462614059E0
1.957647061E1,-4.718646049E0,8.886942863E0,-1.316052526E-1
1.959728360E1,2.734996319E0,7.458428383E0,6.783652306E0
1.961812711E1,-1.117448211E0,1.308634663E1,9.908679008E0
1.963894010E1,2.019542217E0,2.677568436E0,1.749153376E0
1.965978360E1,3.598805189E0,1.184686470E1,4.819144726E0
1.968059659E1,1.581655741E0,2.337787628E0,6.783652306E0
1.970140958E1,3.613162339E-1,8.212167740E0,7.642675400E0
1.972225308E1,1.612762451E0,7.728816986E0,7.219145775E0
1.974306607E1,-1.660618901E0,3.385843992E0,7.377072334E0
1.976390958E1,-4.395615101E0,1.239721394E1,7.393822193E0
1.978472257E1,3.534198999E0,9.456435204E0,3.594019651E0
1.980553556E1,-4.881358147E0,5.726024628E0,1.023888779E1
1.982634854E1,2.335394859E0,6.757331371E0,1.296670628E1
1.984719205E1,-1.756331801E0,7.750352383E0,8.987442017E0
1.986800504E1,-1.847259045E0,4.599005222E0,6.551548481E0
1.988884854E1,6.441478729E0,1.479721546E1,9.061619759E0
1.990966153E1,2.055434704E0,4.041477680E0,4.074976921E0
1.993047452E1,2.084148407E0,9.394221306E0,6.001199245E0
1.995128751E1,-1.316052526E-1,2.998206854E0,-3.775874138E0
1.997213101E1,1.789831281E0,8.374879360E-1,4.481756687E0
1.999294400E1,5.099104881E0,8.262416840E0,7.324429989E0
2.001375699E1,-6.723831892E-1,1.873580098E0,4.328616142E0
2.003456998E1,3.151347399E0,4.864608288E0,9.619147301E0
2.005538297E1,-2.809173822E0,9.159725189E0,-1.253839016E0
2.007619596E1,2.687139750E0,-2.227717876E0,1.598405480E0
2.009703946E1,9.571290612E-1,1.112662506E1,-8.039883971E-1
2.011785245E1,1.663011789E0,-4.852644444E0,-2.275574446E0
2.013869596E1,9.492327690E0,8.135597229E0,1.607019615E1
2.015950894E1,-2.160718918E0,1.502453327E1,1.397886944E1
2.018032193E1,2.206182480E0,5.977271080E0,8.111668825E-1
2.020113492E1,1.198804140E0,1.221775246E1,4.266402721E0
2.022194791E1,1.497906923E0,4.675575256E0,7.867600918E0
2.024279141E1,4.036691666E0,1.172243786E1,5.412564754E0
2.026360440E1,-6.747759581E-1,3.134597778E0,3.921836376E0
2.028441739E1,1.868794441E0,8.707481384E0,8.997013092E0
2.030523038E1,2.629712105E0,1.115533924E1,7.817351341E0
2.032607388E1,3.005385160E0,4.699503899E0,3.546163082E0
2.034688687E1,3.050848961E0,7.625925541E0,7.896314621E0
2.036769986E1,2.232503414E0,7.704888821E0,4.613361835E0
2.038851285E1,5.359922647E-1,8.836693764E0,1.191625714E0
2.040932584E1,1.117448211E0,7.889136314E0,2.591426849E0
2.043016934E1,2.763710260E0,9.786644936E0,6.927221775E0
2.045098233E1,1.914258115E-2,6.580262184E0,4.242474556E0
2.047179532E1,3.046063185E0,5.381458282E0,5.984449387E0
2.049263883E1,-1.196411327E-1,6.340980053E0,5.103890896E0
2.051345182E1,1.483550072E0,9.150154114E0,4.280759811E0
2.053426480E1,-4.331009090E-1,6.178267956E0,1.658226132E0
2.055507779E1,-1.663011789E0,9.176474571E0,1.220818138E1
2.057592130E1,-6.843472719E-1,6.104090691E0,3.921836376E0
2.059673428E1,-2.715853691E0,-2.222932339E0,4.137190342E0
2.061754727E1,3.134597540E-1,1.419422436E1,1.302413368E1
2.063838459E1,1.548156261E0,1.071266651E1,1.454836130E0
2.065919758E1,-2.088934183E0,4.680361271E0,6.534798622E0
2.068001056E1,4.977071285E0,1.224407387E1,1.083230782E1
2.070085407E1,4.563112736E0,6.259624004E0,6.829115868E0
2.072166706E1,-2.711068153E0,4.431507587E0,-6.915257573E-1
2.074248005E1,3.177668571E0,8.453842163E0,1.076770201E-1
2.076332355E1,4.216153622E0,2.672782898E0,1.181336498E1
2.078413654E1,4.019941986E-1,1.497189140E1,1.013360405E1
2.080494953E1,-4.474578202E-1,3.661018610E0,1.000199914E0
2.082579304E1,-3.218346357E0,1.361516094E1,1.428993702E1
2.084660602E1,-2.481357098E0,5.434100151E0,1.027956581E1
2.086744953E1,-6.364908218E-1,1.159801102E1,5.584847927E0
2.088826252E1,2.069791555E0,6.632904530E0,2.230110645E0
2.090907551E1,-4.905286431E-1,1.054995537E1,9.899106979E0
2.092991901E1,3.902693748E0,4.469792843E0,7.542177200E0
2.095073200E1,-2.088934183E0,8.642875671E0,7.788637638E0
2.097157551E1,1.036092162E0,4.553541660E0,3.634697676E0
2.099238850E1,2.995813847E0,7.161718369E0,8.415556908E0
2.101323200E1,-5.048855543E-1,8.693124771E0,7.410571575E0
2.103404499E1,4.752145767E0,7.920242786E0,4.058227062E0
2.105485798E1,-3.084348440E0,6.525227547E0,4.840680122E0
2.107570148E1,-1.093519926E0,7.226324558E0,5.776273727E0
2.109651447E1,3.177668571E0,9.829715729E0,1.000678444E1
2.111732746E1,-3.067598581E0,1.082752228E1,5.790630817E0
2.113814045E1,4.945964336E0,7.106683254E0,5.639883041E0
2.115898395E1,-1.466800332E0,7.781459332E0,1.016231823E1
2.117979694E1,2.847459018E-1,6.362515450E0,8.508877754E0
2.120060993E1,1.079162955E0,1.044227791E1,-3.349951804E-1
2.122142292E1,-5.766702294E-1,7.482356548E0,3.701696634E0
2.124226642E1,3.263810158E0,8.350951195E0,3.747160196E0
2.126307941E1,2.148754835E0,4.362115860E0,4.278367043E0
2.128389240E1,3.960121393E0,7.913064480E0,5.929414749E0
2.130470539E1,2.897708178E0,8.341380119E0,2.117648125E0
2.132551838E1,1.964507341E0,6.855436802E0,2.811566591E0
2.134633137E1,2.110469580E0,6.826723099E0,7.649854183E0
2.136717487E1,1.914258152E-1,5.850451469E0,5.046463013E0
2.138798786E1,1.866401672E0,6.343372822E0,3.952943087E0
2.140880085E1,7.393822074E-1,9.439684868E0,5.553741455E0
2.142964436E1,1.359123230E0,6.144768715E0,5.943771362E0
2.145045734E1,1.787438512E0,8.827122688E0,8.508877754E0
2.147127033E1,9.571290612E-1,5.577669621E0,7.671389580E0
2.149208332E1,2.057827473E0,7.891529083E0,5.391029358E0
2.151289631E1,2.888136864E0,5.472385406E0,6.228517532E0
2.153370930E1,1.954936147E0,7.527820110E0,8.149953842E0
2.155455280E1,-2.321037948E-1,7.295716286E0,7.006184578E0
2.157536579E1,6.412764788E-1,8.480163574E0,7.322037220E0
2.159617878E1,7.752745152E-1,9.506684303E0,3.443271875E0
2.161699177E1,1.215553880E0,7.238288403E0,5.989234924E0
2.163783527E1,2.483749866E0,9.372686386E0,7.850851059E0
2.165864826E1,6.101697683E-1,8.298309326E0,4.527220249E0
2.167946125E1,2.416750908E0,7.097112179E0,5.740381718E0
2.170030476E1,4.474578202E-1,8.252845764E0,7.475177765E0
2.172111774E1,1.909472466E0,5.151747227E0,8.262416840E0
2.174193073E1,1.390229940E0,6.436692715E0,6.972685337E0
2.176274372E1,1.629512191E0,5.525027275E0,5.532206059E0
2.178358723E1,1.426122308E0,5.766702652E0,6.403193474E0
2.180440021E1,9.451649189E-1,7.178467751E0,5.596812248E0
2.182521320E1,1.406979680E0,6.549155712E0,3.883551121E0
2.184602619E1,8.327022791E-1,8.197810173E0,5.793023586E0
2.186686970E1,1.311266780E0,8.157132149E0,4.118047714E0
2.188768268E1,1.663011789E0,6.635297298E0,5.168497086E0
2.190849567E1,1.452443361E0,8.350951195E0,5.130211830E0
2.192930866E1,-1.339980662E-1,7.322037220E0,3.215953588E0
2.195015217E1,1.490728498E0,6.908079147E0,6.879364967E0
2.197096516E1,2.847459018E-1,7.793423176E0,6.290730953E0
2.199177814E1,1.567298889E0,5.204389095E0,4.785645485E0
2.201259113E1,1.574477315E0,7.843672752E0,7.092326164E0
2.203343464E1,1.009771109E0,5.108676434E0,4.374079704E0
2.205424763E1,4.163511395E-1,6.922435760E0,5.469992638E0
2.207506061E1,2.919243574E-1,6.324230194E0,3.732803345E0
2.209587360E1,-2.608176768E-1,7.910671711E0,5.206781864E0
2.211668659E1,7.034898400E-1,9.133403778E0,5.948556900E0
2.213753010E1,-4.378865361E-1,8.504091263E0,6.312266350E0
2.215834308E1,7.130611539E-1,9.741181374E0,5.814558983E0
2.217918659E1,5.144568682E-1,8.662017822E0,5.264209747E0
2.219999958E1,1.289731383E0,8.327022552E0,6.264409542E0
2.222081257E1,1.213161111E0,7.061219692E0,8.109275818E0
2.224162556E1,3.756731451E-1,7.453642368E0,8.240880966E0
2.226243854E1,2.129612207E0,6.317051888E0,6.510870457E0
2.228325153E1,-6.436693072E-1,5.958128452E0,6.527620316E0
2.230406452E1,9.954141974E-1,7.267002583E0,7.719245911E0
2.232487751E1,-6.340979934E-1,7.580461979E0,5.247459888E0
2.234569050E1,2.871387079E-2,8.444271088E0,5.838487148E0
2.236650349E1,1.021735311E0,8.379665375E0,7.190432072E0
2.238734699E1,1.052841991E-1,7.869993687E0,6.625725746E0
2.240815998E1,1.818545163E-1,6.879364967E0,7.271788120E0
2.242897297E1,-1.435693540E-2,6.845865726E0,7.353144169E0
2.244978596E1,1.890329868E-1,5.804987907E0,4.599005222E0
2.247059894E1,1.914258152E-1,6.685546398E0,5.091926575E0
2.249141193E1,-7.202396393E-1,6.915257454E0,5.723631859E0
2.251225544E1,-1.196411327E-1,8.185846329E0,5.905486107E0
2.253306843E1,-4.546363056E-1,9.389435768E0,6.168696880E0
2.255388142E1,-7.178468108E-1,8.908478737E0,6.144768715E0
2.257469440E1,6.987041831E-1,9.025727272E0,6.247660160E0
2.259553791E1,-1.459621787E0,9.645467758E0,3.763910055E0
2.261635090E1,1.663011789E0,8.465806961E0,4.457828522E0
2.263716389E1,6.245267391E-1,8.705088615E0,5.699703693E0
2.265797687E1,8.733802438E-1,6.917650223E0,3.737588882E0
2.267878986E1,3.421736360E-1,6.262016773E0,4.907679081E0
2.269963337E1,1.127019525E0,5.371886730E0,5.340780258E0
2.272044636E1,-5.742774159E-2,6.084948063E0,3.828516245E0
2.274125935E1,3.541377485E-1,6.135197163E0,4.474578381E0
2.276207233E1,3.948157430E-1,6.247660160E0,3.962514400E0
2.278291584E1,-4.498506486E-1,5.819344521E0,2.660818815E0
2.280372883E1,6.340979934E-1,7.659425259E0,3.151347399E0
2.282454182E1,3.589234129E-2,6.221338749E0,5.800201893E0
2.284535480E1,3.022135019E0,6.690331936E0,9.040083885E0
2.286619831E1,2.392822690E-2,4.082155228E0,4.539184570E0
2.288701130E1,2.766103029E0,3.546163082E0,7.317251682E0
2.290782429E1,1.258624673E0,9.329615593E0,9.461220741E0
2.292863727E1,9.643075466E-1,5.199603558E0,6.259624004E0
2.294945026E1,3.584448338E0,7.726424217E0,9.135796547E0
2.297026325E1,1.244267821E0,7.477570534E0,1.100219822E1
2.299110676E1,3.701696634E0,8.659625053E0,9.566504478E0
2.301191974E1,7.250252366E-1,5.867201328E0,8.140382767E0
2.303273273E1,1.253839016E0,6.888936520E0,8.267202377E0
2.305357624E1,2.730210543E0,8.130811691E0,9.372686386E0
2.307438923E1,1.342373490E0,7.180860519E0,4.553541660E0
2.309520222E1,-1.794617027E-1,7.200003147E0,3.486342669E0
2.311601520E1,1.706082582E0,8.166703224E0,7.226324558E0
2.313685871E1,5.886343718E-1,8.961120605E0,7.401000500E0
2.315767170E1,9.260223508E-1,6.628118515E0,3.725624800E0
2.317848469E1,3.055634499E0,2.258824587E0,4.027120590E0
2.319929768E1,-9.092725813E-2,7.211967468E0,7.707281590E0
2.322014118E1,2.766103029E0,7.800601959E0,1.050449133E0
2.324095417E1,-3.948157430E-1,8.662017822E0,3.050848961E0
2.326176716E1,-7.896314561E-2,1.059302616E1,5.450850010E0
2.328258015E1,2.033899277E-1,7.891529083E0,5.833701611E0
2.330342365E1,2.081755698E-1,1.072702408E1,5.058426857E0
2.332423664E1,1.088734269E0,8.913264275E0,5.285745144E0
2.334504963E1,2.715853691E0,8.468199730E0,7.293323517E0
2.336586262E1,1.983649969E0,9.662218094E0,7.616354465E0
2.338667560E1,2.301895380E0,6.309873104E0,9.597611427E0
2.340748859E1,1.241874933E0,8.444271088E0,9.681360245E0
2.342833210E1,1.308874011E0,8.461020470E0,8.834300995E0
2.344914509E1,1.071984529E0,6.147161484E0,7.408178806E0
2.346995808E1,2.486142635E0,8.468199730E0,1.038245773E1
2.349077106E1,2.098505497E0,6.501298904E0,9.092725754E0
2.351158405E1,1.780260086E0,6.752545357E0,7.003791809E0
2.353239704E1,6.723831892E-1,4.553541660E0,5.144568920E0
2.355321003E1,-4.737788737E-1,9.018548965E0,8.408378601E0
2.357405353E1,-9.810572863E-2,8.169096947E0,4.206582069E0
2.359486652E1,-7.968099117E-1,7.116254330E0,6.460621357E0
2.361567951E1,5.120640397E-1,6.285944939E0,6.326622963E0
2.363649250E1,-9.140582681E-1,8.374878883E0,6.463014126E0
2.365730549E1,-4.857429862E-1,1.053081226E1,4.445864677E0
2.367814899E1,1.674975902E-1,8.149953842E0,4.151547432E0
2.369896198E1,1.299302697E0,6.608976364E0,7.692924976E0
2.371977497E1,9.810572863E-1,8.587840080E0,8.322237015E0
2.374058796E1,-9.355936646E-1,6.312266350E0,3.895515203E0
2.376140095E1,1.064806104E0,2.541177750E0,2.804388046E0
2.378221394E1,-6.819544435E-1,9.631111145E0,9.461220741E0
2.380302692E1,1.127019525E0,8.760123253E0,5.434100151E0
2.382383991E1,-6.963114142E-1,9.875179291E0,6.037091732E0
2.384468342E1,-1.320838094E0,9.092725754E0,5.769095421E0
2.386549641E1,3.342773199E0,9.119047165E0,1.047577763E1
2.388630939E1,5.575276613E-1,1.094716358E1,2.567498684E0
2.390712238E1,1.146162033E0,3.854837179E0,2.017149448E0
2.392796589E1,-1.131805062E0,1.051645565E1,2.414358139E0
2.394877888E1,-2.392822644E-3,3.986442566E0,7.592426300E0
2.396959186E1,4.768895626E0,1.072223854E1,6.999006271E0
2.399040485E1,8.374879360E-1,3.811766386E0,3.170490026E0
2.401121784E1,1.100698471E0,7.704888821E0,5.101497650E0
2.403203083E1,-3.326023519E-1,2.947957516E0,4.065405846E0
2.405287434E1,1.337587833E0,9.415757179E0,5.070391178E0
2.407368732E1,8.207381964E-1,4.302295208E0,2.493321180E0
2.409450031E1,1.663011789E0,8.343772888E0,7.185646534E0
2.411534382E1,-1.292124242E-1,4.912465096E0,4.084548473E0
2.413615681E1,3.354737282E0,2.639283419E0,8.853444099E0
2.415696979E1,3.637090445E0,9.602396965E0,6.470192432E0
2.417778278E1,1.526620865E0,4.663611412E0,3.436093330E0
2.419859577E1,1.311266780E0,8.889336586E0,2.785245657E0
2.421943928E1,-1.071984529E0,4.809573650E0,4.613361835E0
2.424025227E1,2.627319336E0,1.143769264E1,1.032024384E1
2.426106525E1,-2.775674164E-1,6.642475605E0,3.424129248E0
2.428187824E1,4.512863636E0,-4.115654826E-1,5.405386448E0
2.430269123E1,2.811566591E0,7.389036179E0,7.200003147E0
2.432353474E1,2.005185366E0,2.225325108E0,5.460421085E0
2.434434772E1,1.954936147E0,9.355937004E0,7.649854183E0
2.436516071E1,-1.990828395E0,7.913064480E0,5.613562107E0
2.438597370E1,1.698904037E0,1.170329571E1,6.819544315E0
2.440678669E1,1.316052437E0,6.635297298E0,5.558526993E0
2.442759968E1,1.172483087E0,8.159524918E0,6.367300987E0
2.444844318E1,7.561319470E-1,5.881557941E0,6.331408501E0
2.446925617E1,6.005984545E-1,7.369893551E0,7.881958008E0
2.449006916E1,2.031506538E0,5.235496044E0,4.453042984E0
2.451088215E1,2.464607358E-1,6.735795975E0,6.912864685E0
2.453172565E1,1.478764415E0,7.482356548E0,5.144568920E0
2.455253864E1,-4.498506486E-1,9.585647583E0,6.147161484E0
2.457335163E1,2.416750938E-1,1.025803089E1,5.381458282E0
2.459419514E1,7.298108935E-1,7.841279984E0,4.835894585E0
2.461500812E1,9.044869542E-1,8.047062874E0,7.269395351E0
2.463582111E1,1.184447169E0,6.613761902E0,6.903293133E0
2.465663410E1,1.777867198E0,5.249852657E0,4.771288395E0
2.467747761E1,1.036092162E0,6.876972198E0,7.030112743E0
2.469829060E1,-7.034898400E-1,9.652647018E0,5.467599869E0
2.471910358E1,1.627119333E-1,6.652047157E0,4.835894585E0
2.473994709E1,6.747759581E-1,1.304566860E1,7.826922894E0
2.476076008E1,9.906286001E-1,6.171089649E0,3.998406649E0
2.478157307E1,-7.944171429E-1,1.063848972E1,8.719446182E0
2.480238605E1,4.211367965E-1,3.055634499E0,5.927021503E0
2.482322956E1,-2.505285263E0,7.465606689E0,4.606183529E0
2.484404255E1,-2.081755698E-1,5.970092297E0,6.199803352E0
2.486485554E1,-8.662018180E-1,7.573283672E0,5.371886730E0
2.488569904E1,-9.332008660E-2,6.364908218E0,4.723432064E0
2.490651203E1,-8.279166222E-1,6.745367050E0,7.027719975E0
2.492732502E1,6.460621208E-2,5.666203976E0,7.678567886E0
2.494813801E1,1.026520967E0,8.468199730E0,6.046662807E0
2.496898151E1,1.172483087E0,6.003592014E0,4.589433670E0
2.498979450E1,1.435693651E-1,8.434700012E0,5.017749310E0
2.501060749E1,1.435693651E-1,8.650053978E0,5.527420521E0
2.503145100E1,3.900300980E0,1.027956581E1,6.860222340E0
2.505226398E1,5.503492057E-2,8.604590416E0,7.530212879E0
2.507307697E1,6.580262184E-1,6.345765591E0,5.467599869E0
2.509388996E1,6.317051649E-1,6.101697922E0,6.460621357E0
2.511470295E1,-1.146162033E0,1.190429306E1,7.341179848E0
2.513551594E1,-3.397808075E-1,7.817351341E0,7.630711555E0
2.515635944E1,-8.542376757E-1,8.341380119E0,9.779465675E0
2.517717243E1,-3.948157430E-1,5.343173027E0,8.082955360E0
2.519798542E1,1.538584948E0,7.800601959E0,6.707081795E0
2.521879841E1,-2.919243574E-1,6.527620316E0,4.031906128E0
2.523964191E1,2.057827473E0,9.147761345E0,7.338787079E0
2.526045490E1,-4.187439680E-1,6.565905571E0,5.479563713E0
2.528126789E1,1.189232826E0,7.592426300E0,4.811966419E0
2.530208088E1,2.129612118E-1,5.082355499E0,3.790230989E0
2.532289387E1,1.555334777E-1,7.427321434E0,8.616554260E0
2.534373737E1,2.871387243E0,6.757331371E0,4.323830605E0
2.536455036E1,5.790630579E-1,6.934400082E0,5.096712112E0
2.538536335E1,2.531606436E0,6.848258495E0,7.209574699E0
2.540617634E1,4.809573591E-1,4.984249592E0,6.082555294E0
2.542698932E1,1.935793519E0,7.482356548E0,7.601997375E0
2.544780231E1,1.744367719E0,7.762316704E0,3.553341627E0
2.546861530E1,1.938186288E-1,8.288737297E0,5.962913990E0
2.548945881E1,2.991028309E0,8.133204460E0,8.908478737E0
2.551027180E1,1.478764415E0,6.872186661E0,7.219145775E0
2.553108478E1,3.713660717E0,5.804987907E0,7.211967468E0
2.555189777E1,2.670390129E0,9.298508644E0,6.381658077E0
2.557274128E1,6.508477330E-1,7.475177765E0,6.422336102E0
2.559355427E1,3.158525944E0,8.767302513E0,1.039202881E1
2.561436726E1,1.627119333E-1,8.786444664E0,7.269395351E0
2.563518024E1,1.682154298E0,5.020142078E0,4.065405846E0
2.565602375E1,8.733802438E-1,7.362715244E0,8.061419487E0
2.567683674E1,8.159525394E-1,1.078684425E1,7.616354465E0
2.569764973E1,1.926222205E0,7.762316704E0,5.587240696E0
2.571846271E1,1.462014675E0,6.154339790E0,7.601997375E0
2.573927570E1,2.098505497E0,4.890929699E0,4.594219685E0
2.576008869E1,1.686939955E0,8.248059273E0,3.113062143E0
2.578090168E1,1.036092162E0,8.152346611E0,2.928814888E0
2.580174518E1,4.529613495E0,6.970292568E0,8.121239662E0
2.582255817E1,1.064806104E0,7.984848976E0,7.176074982E0
2.584337116E1,1.392622828E0,5.589633465E0,2.706282377E0
2.586418415E1,1.646261930E0,1.175833035E1,1.160758305E1
2.588499714E1,-8.614161611E-1,1.350748348E1,7.178467751E0
2.590581013E1,2.376072884E0,-1.990828395E0,2.964707375E0
2.592665363E1,2.392822644E-3,1.384965706E1,1.510828209E1
2.594746662E1,-2.488535494E-1,1.059541893E1,1.025085258E1
2.596827961E1,4.247260094E0,1.138265705E1,4.347758770E0
2.598912311E1,-4.905286431E-1,6.116054535E0,2.849851847E0
2.600993610E1,4.268795490E0,7.523034573E0,1.176072311E1
2.603074909E1,-6.747759581E-1,7.458428383E0,1.249053478E0
2.605159260E1,-3.541377485E-1,2.703889608E0,3.996013701E-1
2.607240559E1,7.058826685E-1,8.422736168E0,2.411965132E0
2.609321857E1,8.542376757E-1,6.498906136E0,4.101297855E0
2.611403156E1,-1.852044702E0,9.298508644E0,3.101098061E0
2.613484455E1,1.050449133E0,8.609375954E0,6.214160442E0
2.615568806E1,-1.129412293E0,7.960920811E0,6.118447304E0
2.617650104E1,-2.201396823E-1,4.098905087E0,2.132004976E0
2.619731403E1,1.325623751E0,7.281359196E0,4.969892502E0
2.621812702E1,-1.428515077E0,7.640282631E0,1.167697430E0
2.623897053E1,1.758724689E0,9.061619759E0,8.712266922E0
2.625978352E1,-9.834501147E-1,8.652446747E0,4.153940201E0
2.628059650E1,-6.747759581E-1,8.611768723E0,9.930213690E-1
2.630144001E1,-1.655833244E0,9.087940216E0,4.036691666E0
2.632225300E1,2.900100946E0,1.181336498E1,8.410771370E0
2.634306599E1,-1.907079697E0,7.290930748E0,1.485942841E0
2.636387897E1,4.785645287E-3,5.209175110E0,5.773880959E0
2.638472248E1,-1.330409408E0,1.159083271E1,8.985049248E0
2.640553547E1,-2.289931297E0,7.532605648E0,8.705088615E0
2.642634846E1,2.206182480E0,1.084666538E1,6.439085960E0
2.644716144E1,-1.770688772E0,7.917850018E0,5.096712112E0
2.646797443E1,1.418943882E0,9.401400566E0,1.399801254E1
2.648881794E1,2.646461725E0,5.481956482E0,1.355055428E1
2.650963093E1,-9.236295223E-1,9.145368576E0,6.398407936E0
2.653044392E1,4.232903481E0,6.695117950E0,5.848058701E0
2.655125690E1,-6.757331371E0,8.910871506E0,2.586641312E0
2.657206989E1,8.434700012E0,-2.081755698E-1,-2.962314367E0
2.659288288E1,1.507478237E0,4.517649174E0,2.268395901E0
2.661372639E1,8.030312538E0,9.487542152E0,3.541377485E-1
2.663453937E1,-3.141776085E0,-7.130611539E-1,-2.916850805E0
2.665535236E1,3.972085476E0,3.136990547E0,3.282952785E0
2.667619587E1,-4.354937077E-1,4.141975880E0,6.967899323E0
2.669700886E1,1.734796405E0,8.013563156E0,5.675775528E0
2.671782185E1,6.652047038E-1,6.288337708E0,1.727617979E0
2.673863483E1,1.682154298E0,6.805187702E0,5.268995285E0
2.675947834E1,2.924029350E0,5.613562107E0,1.574477315E0
2.678029133E1,3.182454109E-1,7.063612461E0,1.765903115E0
2.680110432E1,4.316651821E0,8.221738815E0,1.837687731E0
2.682194782E1,-4.498506486E-1,1.119601727E1,8.085348129E0
2.684276081E1,2.696711063E0,1.004506969E1,3.938585997E0
2.686357380E1,1.854437590E0,-7.896314859E-1,-3.182454109E-1
2.688438679E1,1.658226132E0,1.094477081E1,8.891729355E0
2.690519977E1,2.419143677E0,9.370293617E0,8.525627136E0
2.692604328E1,2.792423964E0,6.809973240E0,1.596012712E0
2.694685627E1,-9.332008362E-1,5.029713154E0,3.177668571E0
2.696766926E1,-4.737788737E-1,9.087940216E0,7.223931789E0
2.698848224E1,-1.459621787E-1,7.537391186E0,1.304327583E1
2.700929523E1,1.950150490E0,9.600004196E0,2.689532757E0
2.703010822E1,7.178467698E-3,7.154539824E-1,6.886543751E0
2.705092121E1,1.782652855E0,1.258385468E1,2.081995010E1
2.707176472E1,-9.858429432E-1,8.154739380E0,9.028120041E0
2.709257770E1,1.000199914E0,7.396214962E0,5.891129494E0
2.711339069E1,9.475577474E-1,8.394021988E0,3.890729666E0
2.713423420E1,3.550948858E0,5.194818020E0,5.479563713E0
2.715504719E1,3.948157430E-1,8.463413239E0,6.991827965E0
2.717589069E1,2.261217356E0,6.458228111E0,5.759523869E0
2.719670368E1,-5.982056856E-1,7.618747234E0,5.534598827E0
2.721751667E1,-5.223531723E0,8.839086533E0,3.634697676E0
2.723832966E1,2.703889608E0,6.876972198E0,6.479763508E0
2.725914265E1,-7.489534616E-1,1.190668583E1,2.294716835E0
2.727995563E1,-2.603390932E0,2.321037948E-1,1.359123230E0
2.730079914E1,7.058826685E-1,7.109076023E0,5.154139996E0
2.732161213E1,8.566305041E-1,5.412564754E0,9.872786522E0
2.734242512E1,1.112662554E0,7.001399040E0,9.714859724E-1
2.736323810E1,-3.201596737E0,6.771687984E0,3.931407690E0
2.738405109E1,3.897907972E0,7.551748276E0,1.433540058E1
2.740489460E1,-2.376072884E0,1.389990711E1,5.438885689E0
2.742570759E1,4.993820667E0,3.445664644E0,5.048855782E0
2.744652058E1,-1.952543259E0,1.428036594E1,9.906285286E0
2.746733356E1,-1.775474429E0,1.133001518E1,1.329212952E1
2.748814655E1,-9.284151793E-1,1.206221867E1,6.525227547E0
2.750895954E1,-4.764110088E0,6.695117950E0,3.577269793E0
2.752980305E1,-3.646661758E0,7.709674358E0,6.336194515E0
2.755061603E1,2.060220242E0,8.920442581E0,6.269195557E0
2.757142902E1,-1.524227977E0,9.848857880E0,5.673382282E0
2.759227253E1,1.974078655E0,5.079962254E0,2.354537487E0
2.761308552E1,1.706082582E0,8.408378601E0,2.842673302E0
2.763389850E1,9.044869542E-1,7.056434155E0,3.785445452E0
2.765471149E1,1.191625714E0,8.606983185E0,9.188438654E-1
2.767555500E1,3.589234054E-1,6.285944939E0,4.486542225E0
2.769636799E1,-1.409372568E0,1.093759251E1,8.688339233E0
2.771718098E1,2.596212626E0,4.522434711E0,1.959721804E0
2.773802448E1,-1.095912814E0,6.530013084E0,3.177668571E0
2.775883747E1,-1.543370605E0,1.010010433E1,4.931607246E0
2.777965046E1,2.172683001E0,5.903093338E0,6.163911343E0
2.780049396E1,-5.967699528E0,1.409133244E1,4.852644444E0
2.782130695E1,3.103491068E0,7.992027760E0,3.364308596E0
2.784211994E1,-9.188438654E-1,4.852644444E0,7.369893789E-1
2.786293293E1,6.324230194E0,1.550549030E0,3.818944931E0
2.788374592E1,8.066205025E0,8.633303642E0,1.041835022E1
2.790455891E1,-5.125426292E0,3.311666489E0,-2.679961324E-1
2.792540241E1,4.048655987E0,9.650253296E0,3.321237803E0
2.794621540E1,7.633104324E-1,1.167697430E0,7.783852100E0
2.796702839E1,3.479164124E0,9.001798630E0,1.518006706E1
2.798787189E1,8.733802438E-1,1.046381378E1,7.250252724E0
2.800868488E1,-3.254238665E-1,6.623332977E0,1.082512951E1
2.802952839E1,1.033699393E0,7.054041386E0,1.055474091E1
2.805034138E1,1.153340459E0,1.050927734E1,1.068634605E1
2.807115436E1,-3.637090325E-1,9.217152596E0,1.840080619E0
2.809199787E1,3.041277647E0,1.485942841E0,3.852444589E-1
2.811281086E1,2.787638426E0,8.489734650E0,9.025727272E0
2.813365436E1,-7.178467698E-3,1.155015469E1,6.855436802E0
2.815446735E1,4.376472473E0,7.262216568E0,6.458228111E0
2.817528034E1,-4.287938118E0,1.352901936E1,8.946763992E0
2.819612385E1,1.758724689E0,6.484549522E0,3.723232031E0
2.821693684E1,-6.317051649E-1,8.673981667E0,1.316052437E0
2.823774982E1,-1.873580098E0,4.907679081E0,-2.366501570E0
2.825856281E1,3.692125320E0,5.319244862E0,4.630111694E0
2.827937580E1,1.124626637E0,6.776473522E0,1.272981644E0
2.830018879E1,8.757730722E-1,6.527620316E0,-1.220339537E-1
2.832100178E1,3.139383316E0,5.132604599E0,6.630511761E0
2.834184528E1,3.302095234E-1,8.776873589E0,8.252845764E0
2.836265827E1,5.431707382E0,3.960121393E0,1.698904037E0
2.838350178E1,1.288535023E1,1.138983536E1,1.459621787E0
2.840431477E1,2.708675146E0,3.364308596E0,7.489534855E0
2.842512775E1,1.118166065E1,1.163390350E1,9.004191399E0
2.844597126E1,-4.036691666E0,9.147761345E0,1.192822075E1
2.846678425E1,-1.694118381E0,1.221775246E1,1.406501102E1
2.848759724E1,-1.361516118E0,1.156211948E1,5.003392220E0
2.850841022E1,-8.157132149E0,1.522792339E1,3.744767427E0
2.852925373E1,9.652647018E0,1.763510346E0,9.528220177E0
2.855006672E1,4.855037212E0,1.039681435E1,1.734557152E1
2.857087971E1,-1.598405480E0,5.685346603E0,8.214560509E0
2.859169269E1,-2.153540373E0,8.827122688E0,9.049654961E0
2.861250568E1,-1.294517040E0,4.931607246E0,5.958128572E-1
2.863334919E1,8.039883971E-1,1.514656782E0,3.857230186E0
2.865416218E1,2.086541414E0,1.026760197E1,-4.682754040E0
2.867497516E1,1.182054400E0,2.818745136E0,-3.670589924E0
2.869581867E1,6.448657036E0,1.422772312E1,-1.186840057E1
2.871663166E1,-5.044070244E0,3.352344513E0,-4.431507587E0
2.873744465E1,-1.196411345E-2,1.333998585E1,1.022453117E1
2.875825764E1,1.105484009E0,8.925228119E0,4.553541660E0
2.877910114E1,-1.217228889E1,4.606183529E0,7.920242786E0
2.879991413E1,7.920243144E-1,1.242114258E1,4.342973232E0
2.882072712E1,1.646261930E0,4.589433670E0,1.432104397E1
2.884157062E1,-2.165504456E0,1.452921867E1,3.924229145E0
2.886238361E1,1.457229018E0,2.469393015E0,1.364387512E1
2.888319660E1,-8.987442017E0,1.266999626E1,1.068156052E1
2.890400959E1,-2.024327993E0,4.266402721E0,1.069830990E1
2.892485310E1,1.722832322E0,1.557727528E1,3.345165968E0
2.894566608E1,1.476371527E0,7.776673794E0,4.902893543E0
2.896647907E1,3.605983734E0,8.248059273E0,6.111268997E0
2.898729206E1,8.183453679E-1,1.209811115E1,8.082955360E0
2.900810505E1,2.201396942E0,1.043749237E1,3.921836376E0
2.902894855E1,2.249253273E0,7.735995770E0,-8.949156404E-1
2.904976154E1,-4.371686935E0,1.667797327E0,3.091526747E0
2.907057453E1,-6.699903607E-1,1.066481018E1,1.100459099E1
2.909141804E1,9.188438654E-1,7.302894592E0,-2.871387243E0
2.911223102E1,-4.673182487E0,4.768895626E0,-1.787438512E0
2.913304401E1,5.216353536E-1,1.075334454E1,-1.495514154E0
2.915385700E1,-8.470591903E-1,3.790230989E0,9.466006279E0
2.917470051E1,-3.230310678E-1,7.109076023E0,7.094718933E0
2.919551350E1,2.261217356E0,6.867401123E0,2.304288149E0
2.921632648E1,3.086741269E-1,8.559126854E0,1.082034397E1
2.923713947E1,-1.301695466E0,8.630910873E0,6.482156754E0
2.925798298E1,-3.404986620E0,-9.140582681E-1,3.381058455E0
2.927879597E1,2.033899277E-1,5.484349728E0,8.757730484E0
2.929960895E1,-2.510071039E0,1.354337597E1,5.024927616E0
2.932042194E1,2.976671457E0,3.450450182E0,4.027120590E0
2.934123493E1,-2.974278450E0,1.417029572E1,7.688138962E0
2.936207844E1,4.125226021E0,2.837887764E0,8.145168304E0
2.938289143E1,2.285145521E0,1.126780224E1,6.472585201E0
2.940370441E1,5.192425251E0,5.888736725E0,1.993221283E0
2.942454792E1,3.682554007E0,8.075776100E0,7.994420528E0
2.944536091E1,-1.196411371E0,6.139982700E0,4.553541660E0
2.946617390E1,2.261217356E0,8.310273170E0,9.920642853E0
2.948698688E1,9.714859724E-1,6.876972198E0,1.021735311E0
2.950783039E1,-8.470591903E-1,5.163711071E0,1.866401672E0
2.952864338E1,9.954141974E-1,2.892922640E0,4.699503899E0
2.954945637E1,1.411765337E0,8.958727837E0,9.308079720E0
2.957029987E1,-4.594219327E-1,1.238285732E1,3.151347399E0
2.959111286E1,4.390829563E0,2.993421078E0,2.612962246E0
2.961192585E1,-7.704889178E-1,1.139222908E1,7.802994728E0
2.963276936E1,2.512463808E0,4.730610371E0,6.137589931E0
2.965358234E1,2.201396823E-1,1.133480072E1,5.816951752E0
2.967439533E1,5.934200287E-1,7.910671711E0,2.971885681E0
2.969523884E1,4.354937077E0,5.809773445E0,6.525227547E0
2.971605182E1,-6.604190469E-1,1.052841949E1,9.341579437E0
2.973686481E1,-6.173482537E-1,7.901100159E0,9.353543282E0
2.975767780E1,-5.431707501E-1,1.091127110E1,1.028195858E1
2.977852131E1,1.217946768E0,8.836693764E0,6.616154671E0
2.979933430E1,5.412564754E0,8.592626572E0,5.690132141E0
2.982014728E1,2.294716835E0,8.025527000E0,4.407579422E0
2.984099079E1,-4.352544308E0,7.747959614E0,9.619147182E-1
2.986180378E1,-6.077769279E0,5.572884083E0,1.478764415E0
2.988261677E1,-1.146162033E0,6.994220734E0,1.106680489E1
2.990346027E1,-2.321037948E-1,1.142094231E1,1.421336651E0
2.992427326E1,-2.603390932E0,4.677968502E0,4.450650215E-1
2.994508625E1,4.852644444E0,7.063612461E0,5.474778175E0
2.996592976E1,1.179661512E0,5.431707382E0,1.010249710E1
2.998674274E1,-7.704889178E-1,8.236095428E0,-1.019342422E0
3.000755573E1,3.766302824E0,8.446664214E-1,7.130611539E-1
3.002836872E1,1.024128079E0,1.136830044E1,3.067598581E0
3.004918171E1,3.347558975E0,6.656832695E0,3.239881754E0
3.007002521E1,-1.103091240E0,7.396214962E0,1.179661512E0
3.009083820E1,-2.809173822E0,9.875179291E0,-5.670989752E-1
3.011165119E1,6.532405615E-1,5.752345562E0,5.280959606E0
3.013246418E1,-2.622533560E0,1.301216984E1,4.295116425E0
3.015327717E1,-9.308080077E-1,6.752545357E0,5.682953835E0
3.017409016E1,-2.902493954E0,1.098066330E1,5.627918720E0
3.019490314E1,-2.608176768E-1,6.532405853E0,6.898507595E0
3.021574665E1,-1.971685886E0,1.919043779E0,8.343772888E0
3.023655964E1,2.675175667E0,1.013838959E1,7.362715244E0
3.025737263E1,5.620740414E0,8.678768158E0,4.082155228E0
3.027818561E1,-7.609176040E-1,4.709074974E0,4.704289436E0
3.029902912E1,1.806581140E0,8.123632431E0,1.079162979E1
3.031984211E1,-3.589234129E-2,8.116454124E0,5.302495003E0
3.034065510E1,9.355936646E-1,5.838487148E0,2.416750938E-1
3.036149860E1,2.476571321E0,7.305287361E0,8.650053978E0
3.038231159E1,-1.083948612E0,8.214560509E0,1.046620655E1
3.040312458E1,6.221338734E-2,7.554141045E0,4.189832687E0
3.042393757E1,5.144568682E-1,4.938786030E0,6.084948063E0
3.044478107E1,9.547362328E-1,7.434499741E0,8.293522835E0
3.046559406E1,3.199203968E0,5.747560024E0,1.639083505E0
3.048640705E1,1.543370605E0,2.895315409E0,4.536791801E0
3.050722004E1,2.313859463E0,6.900900364E0,1.171047401E1
3.052806354E1,3.452843189E0,1.043988514E1,5.965306759E0
3.054887653E1,2.600998163E0,9.578469276E0,5.211567879E0
3.056968952E1,5.642275810E0,9.030512810E0,4.570291042E0
3.059050251E1,4.405186653E0,1.019342422E1,7.508677483E0
3.061131550E1,1.959721804E0,8.422736168E0,8.389236450E0
3.063212849E1,-1.244267747E-1,8.389236450E0,8.003992081E0
3.065296447E1,1.014556766E0,6.716653347E0,5.670989513E0
3.067377746E1,-3.254238665E-1,7.791030407E0,7.946564198E0
3.069459044E1,-2.148754835E0,9.092725754E0,3.115455151E0
3.071540343E1,-2.536391914E-1,2.486142635E0,4.347758770E0
3.073621642E1,5.216353536E-1,1.131326580E1,1.161954689E1
3.075705993E1,8.063812256E-1,7.685746193E0,6.235695839E0
3.077787292E1,5.280959606E0,3.357130051E0,5.087141037E0
3.079871642E1,2.172683001E0,5.936593056E0,6.577869415E0
3.081952941E1,2.864208698E0,4.469792843E0,5.489135265E0
3.084034240E1,3.558127165E0,1.224646664E1,5.072783947E0
3.086115539E1,-5.862415433E-1,9.133403778E0,-2.352144718E0
3.088196837E1,2.352144718E0,-6.843472719E-1,3.134597540E-1
3.090281188E1,-1.667797327E0,1.007856941E1,7.037291527E0
3.092362487E1,9.523434043E-1,8.379665375E0,2.464607358E-1
3.094443786E1,-1.808973908E0,2.407179594E0,1.136590719E0
3.096525084E1,-9.643075466E-1,1.430190086E1,8.872586250E0
3.098609435E1,2.598605394E0,6.929614544E0,9.451649666E0
3.100690734E1,-1.004985452E0,1.012642574E1,3.412165165E0
3.102772033E1,2.196611166E0,-8.398807645E-1,2.115255117E0
3.104853332E1,2.201396823E-1,1.194257736E1,4.498506546E0
3.106937682E1,-1.196411345E-2,6.474977970E0,3.718446493E0
3.109018981E1,6.699903607E-1,8.372486115E0,5.213960648E0
3.111100280E1,2.565105915E0,5.644668579E0,6.912864685E0
3.113184630E1,6.508477330E-1,6.965506554E0,2.067398787E0
3.115265929E1,-1.954936147E0,2.871387243E0,1.440479279E0
3.117347228E1,-5.934200287E-1,7.250252724E0,3.943371773E0
3.119431579E1,2.160718918E0,1.138744259E1,1.216989613E1
3.121512877E1,4.546363056E-1,6.396014690E0,6.233303070E0
3.123594176E1,-9.978070259E-1,8.204988480E0,9.195617676E0
3.125675475E1,2.009970993E-1,5.828916073E0,5.764309883E0
3.127759826E1,2.009970993E-1,7.980063438E0,1.142333508E1
3.129841125E1,-5.383850932E-1,6.111268997E0,3.555734396E0
3.131922423E1,-3.900300860E-1,7.635497093E0,4.917250633E0
3.134006774E1,2.110469580E0,5.123033047E0,8.810373306E0
3.136088073E1,1.004985496E-1,1.057866859E1,1.004028416E1
3.138169372E1,4.108476639E0,7.054041386E0,6.139982700E0
3.140250670E1,-7.848458290E-1,6.709474564E0,3.661018610E0
3.142335021E1,-6.197410822E-1,6.833901405E0,3.833301783E0
3.144416320E1,1.634297848E0,1.082752228E1,9.379864693E0
3.146497619E1,1.430907965E0,5.364708424E0,-1.746760458E-1
3.148578917E1,1.588834286E0,-5.814558864E-1,2.416750908E0
3.150663268E1,7.872386575E-1,7.025327206E0,4.141975880E0
3.152744567E1,9.355936646E-1,6.058627129E0,5.912664890E0
3.154825866E1,-2.105683982E-1,5.111069202E0,-9.810572863E-2
3.156910216E1,-1.830509305E0,4.421936035E0,3.058027267E0
3.158991515E1,3.424129248E0,9.415757179E0,1.311745358E1
3.161072814E1,-3.541377485E-1,7.800601959E0,2.672782898E0
3.163154113E1,2.251646042E0,-1.406979680E0,4.924428940E0
3.165235412E1,6.317051649E-1,1.204546928E1,9.482755661E0
3.167316710E1,7.944171429E-1,5.036891460E0,7.642675400E0
3.169394958E1,4.079762459E0,1.068156052E1,3.203989506E0
3.171476256E1,-1.196411345E-2,5.010570526E0,1.000199914E0
3.173560607E1,3.859622955E0,6.917650223E0,1.236610699E1
3.175641906E1,9.475577474E-1,4.989035130E0,7.403393269E0
3.177723204E1,4.309473515E0,4.027120590E0,5.347958565E0
3.179804503E1,1.902294040E0,7.240681171E0,3.292523861E0
3.181885802E1,2.895315289E-1,7.037291527E0,4.747360229E0
3.183970153E1,9.882357717E-1,4.914857864E0,6.151947021E0
3.186051452E1,-1.495514154E0,7.616354465E0,5.845665932E0
3.188132750E1,1.682154298E0,4.010370731E0,5.642275810E0
3.190214049E1,1.495514154E0,5.429314613E0,9.951749802E0
3.192295348E1,2.641676188E0,5.915057659E0,6.204588890E0
3.194379699E1,2.624926329E0,4.790431023E0,3.297309637E0
3.196460998E1,8.901300430E-1,4.185046673E0,5.362315655E0
3.198542296E1,-6.652047038E-1,1.203589821E1,1.347159147E0
3.200623595E1,2.584248543E0,3.610769272E0,3.505485058E0
3.202704894E1,3.369094372E0,5.383851051E0,6.058627129E0
3.204786193E1,1.698904037E0,4.819144726E0,2.376072884E0
3.206870543E1,6.594619274E0,5.972485542E0,1.239482117E1
3.208951842E1,5.240281820E-1,1.157647610E1,5.321637630E0
3.211033141E1,4.716253281E0,6.788437843E0,6.735795975E0
3.213114440E1,2.751745939E0,4.409972191E0,9.561718941E0
3.215195739E1,-3.395415306E0,8.568697929E0,1.241157150E1
3.217280089E1,-3.761517286E0,6.697510719E0,1.225125194E0
3.219361388E1,1.076770186E0,6.972685337E0,1.075813103E1
3.221442687E1,3.022135019E0,1.265085316E1,4.610969067E0
3.223523986E1,1.136590719E0,3.893122435E0,3.091526747E0
3.225605285E1,4.151547432E0,1.442872047E1,1.306720448E1
3.227686583E1,-2.763710260E0,8.137989998E0,1.199282742E1
3.229770934E1,1.201196909E0,1.056670475E1,4.235296249E0
3.231852233E1,-1.545763373E0,2.225325108E0,-3.512663603E0
3.233933532E1,2.000399828E0,5.551348686E0,1.178225899E1
3.236014830E1,1.698904037E0,1.268196011E1,9.600004196E0
3.238096129E1,-4.438685894E0,5.187639713E0,5.379065514E0
3.240177428E1,-3.950550079E0,7.927421570E0,6.544369698E0
3.242261779E1,5.099104881E0,1.339980662E-1,1.199761295E1
3.244343078E1,-3.996013701E-1,9.884750366E0,4.469792843E0
3.246424376E1,5.094319344E0,7.226324677E-1,9.571290575E-3
3.248505675E1,9.284151793E-1,9.494720459E0,2.859423161E0
3.250586974E1,-2.316252232E0,4.481756687E0,9.336793900E0
3.252671325E1,1.153340459E0,7.829315662E0,8.860622406E0
3.254752624E1,2.421536446E0,4.907679081E0,5.979663849E0
3.256833922E1,3.668197155E0,1.082034397E1,4.041477680E0
3.258915221E1,-1.627119333E-1,6.805187702E0,8.039883614E0
3.260999572E1,-3.326023519E-1,7.719245911E0,1.361516094E1
3.263080871E1,3.828516230E-2,6.848258495E0,1.150469112E1
3.265162169E1,1.945364833E0,8.791230202E0,9.946963310E0
3.267243468E1,3.079562664E0,7.580461979E0,3.005385160E0
3.269324767E1,5.941378593E0,3.541377485E-1,3.022135019E0
3.271406066E1,1.627119333E-1,1.179422283E1,6.740581512E0
3.273490416E1,6.939185411E-2,2.825923443E0,-2.167897224E0
3.275571715E1,-1.148554921E0,7.544569969E0,6.403193474E0
3.277653014E1,-1.342373490E0,2.837887764E0,1.070788097E1
3.279734313E1,1.304088354E0,4.668396950E0,9.748359680E0
3.281815612E1,-1.215553880E0,5.876772404E0,2.677568436E0
3.283899962E1,2.017149448E0,5.460421085E0,5.295316696E0
3.285981261E1,5.934200287E-1,8.128418922E0,4.244867325E0
3.288062560E1,9.571290575E-3,8.985049248E0,6.616154671E0
3.290146911E1,2.553141832E0,9.035298347E0,7.719245911E0
3.292228209E1,-7.178468108E-1,5.919843197E0,4.778466702E0
3.294309508E1,-1.878365755E0,1.119841003E1,9.509077072E0
3.296390807E1,4.788038254E0,9.236295700E0,4.589433670E0
3.298475158E1,-1.093519926E0,7.049255371E0,5.546562672E0
3.300556456E1,2.632105052E-1,6.422336102E0,8.243273735E0
3.302637755E1,-7.135396957E0,5.161318302E0,9.420542717E0
3.304722106E1,-2.392822653E-1,8.157132149E0,5.412564754E0
3.306803405E1,-2.790031195E0,9.367900848E0,-1.153340459E0
3.308884704E1,9.427721500E-1,5.357530117E0,1.134437180E1
3.310969054E1,1.849651933E0,8.336593628E0,7.118647575E0
3.313050353E1,-3.086741269E-1,2.167897224E0,7.032505512E0
3.315131652E1,-7.274180651E-1,3.862015724E0,2.976671457E0
3.317216002E1,1.280160069E0,3.306880951E0,4.134797573E0
3.319297301E1,2.019542217E0,9.288937569E0,7.613961697E0
3.321378600E1,2.120040894E0,6.903293133E0,5.441278458E0
3.323459899E1,2.261217356E0,7.417750359E0,4.689932346E0
3.325541198E1,4.331009090E-1,6.034698486E0,8.468199730E0
3.327622497E1,1.667797327E0,5.355136871E0,8.666803360E0
3.329703795E1,2.483749866E0,8.989834785E0,4.790431023E0
3.331788146E1,4.498506486E-1,6.781259537E0,2.900100946E0
3.333869445E1,2.689532757E0,5.706882000E0,8.932407379E0
3.335950744E1,2.074577332E0,6.948757172E0,1.044945621E1
3.338032042E1,1.593619823E0,5.560919762E0,5.735595703E0
3.340113341E1,2.134397745E0,4.689932346E0,3.072384357E0
3.342197692E1,1.471585870E0,5.570491314E0,7.695317745E0
3.344278991E1,1.560120344E0,1.220818138E1,8.530412674E0
3.346360290E1,2.981456995E0,6.898507595E0,4.034298897E0
3.348441588E1,5.168497086E0,6.831508636E0,7.862815380E0
3.350522887E1,3.720839262E0,6.293123722E0,7.604390144E0
3.352607238E1,5.218746185E0,5.513063431E0,4.457828522E0
3.354688537E1,7.106683254E-1,6.343372822E0,1.974078655E0
3.356769835E1,1.686939955E0,1.083470058E1,8.334200859E0
3.358851134E1,2.050648928E0,8.382058144E0,6.233303070E0
3.360932433E1,-2.871387303E-1,1.019820976E1,9.568898201E0
3.363013732E1,4.692325115E0,6.422336102E0,8.178668022E0
3.365098083E1,4.019941986E-1,7.039684296E0,8.791230202E0
3.367179381E1,4.029513359E0,4.835894585E0,6.190232277E0
3.369260680E1,1.627119422E0,1.121755219E1,3.294916868E0
3.371341979E1,-1.481157184E0,6.592226505E0,2.924029350E0
3.373423278E1,2.991028428E-1,5.479563713E0,5.996413708E0
3.375504577E1,-1.787438512E0,6.898507595E0,1.102134132E1
3.377588927E1,2.608176708E0,4.292723656E0,7.087540627E0
3.379670226E1,2.969492912E0,4.979464054E0,7.128218651E0
3.381751525E1,2.421536446E0,3.929014683E0,8.111668587E0
3.383832824E1,4.015156269E0,8.633303642E0,8.896514893E0
3.385914122E1,3.397808075E-1,9.616754532E0,-4.450650215E-1
3.387998473E1,1.196411371E0,-7.800601721E-1,6.946363926E0
3.390079772E1,-2.213361025E0,1.457707596E1,1.060738277E1
3.392161071E1,1.557727575E0,1.171525955E1,-1.811366796E0
3.394242370E1,3.701696634E0,2.081755698E-1,1.648654819E0
3.396323668E1,3.156133175E0,8.480163574E0,1.122233868E0
3.398404967E1,-2.380858421E0,3.842873096E0,6.848258495E0
3.400486266E1,-1.921436548E0,7.958528042E0,2.344966173E0
3.402567565E1,9.332008660E-2,-1.069591761E0,3.208775282E0
3.404648864E1,1.603191137E0,8.731410027E0,9.939785004E0
3.406733214E1,2.682354212E0,6.422336102E0,5.623133183E-1
3.408814513E1,-1.971685886E0,5.637490273E0,5.460421085E0
3.410895812E1,1.533799291E0,5.374279499E0,8.231309891E0
3.412977111E1,-3.349951804E-1,7.733603001E0,9.537791252E0
3.415058410E1,4.785645381E-2,3.553341627E0,4.809573650E0
3.417139708E1,1.196411327E-1,7.836493969E0,2.167897224E0
3.419221007E1,-5.742774606E-1,6.661618233E0,2.416750938E-1
3.421302306E1,1.861616015E0,3.428914785E0,4.228117466E0
3.423383605E1,8.063812256E-1,1.395494175E1,1.054516983E1
3.425467956E1,-5.455635786E-1,5.364708424E0,7.666603565E0
3.427546203E1,5.814558864E-1,5.168497086E0,1.226082325E1
3.429630553E1,7.441678643E-1,2.663211584E0,1.327538013E1
3.431708800E1,-1.478764415E0,9.131011009E0,8.865407944E0
3.433790099E1,1.483550072E-1,8.798408508E0,6.845865726E0
3.435871398E1,1.337587833E0,3.873979807E0,2.086541414E0
3.437952697E1,1.672582984E0,9.707681656E0,1.651526260E1
3.440033996E1,1.433300734E0,1.517049599E1,5.268995285E0
3.442118346E1,-6.460621357E-1,5.570491314E0,2.883351326E0
3.444196593E1,-1.890329868E-1,1.815195274E1,1.006421185E1
3.446277892E1,2.304288149E0,5.383850932E-1,1.405065441E1
3.448359191E1,-1.143769264E0,1.751067543E1,8.185846329E0
3.450440490E1,3.304488182E0,-2.746960402E0,-3.548556089E0
3.452521788E1,-1.261017561E0,7.365108013E0,8.063812256E0
3.454606139E1,-4.993820667E0,8.891729355E0,-3.517449200E-1
3.456687438E1,2.895315289E-1,-1.722832322E-1,9.559326172E0
3.458768737E1,-2.550748825E0,1.847976875E1,6.577869415E0
3.460850036E1,4.065405846E0,-2.900100946E0,-4.304687977E0
3.462931334E1,-1.555334687E0,1.144487095E1,1.325145149E1
3.465012633E1,-9.906286001E-1,4.733003139E0,4.244867325E0
3.467093932E1,2.325823545E0,1.407219028E1,1.437847137E1
3.469175231E1,2.935993433E0,1.150469112E1,4.436293125E0
3.471256530E1,4.462614059E0,-1.272981644E0,1.194018483E0
3.473337829E1,2.959921598E0,9.891928673E0,1.039920712E1
3.475422179E1,-7.537391186E-1,6.558726788E0,7.020541668E0
3.477503478E1,-2.790031195E0,1.260060406E1,4.395615101E0
3.479584777E1,1.433300734E0,6.281159401E0,6.352943897E0
3.481666076E1,2.732603550E0,6.824330330E0,6.821937561E0
3.483747375E1,4.816751957E0,7.570890903E0,1.090409279E1
3.485828673E1,1.818545163E-1,5.099104881E0,9.944570541E0
3.487909972E1,3.091526747E0,-6.809973240E0,8.327022552E0
3.489991271E1,6.580262184E-1,4.072584152E0,9.075976372E0
3.492072570E1,2.297109842E0,1.018624592E1,-3.196810961E0
3.494156920E1,1.550549030E0,1.170568848E1,-9.595218897E-1
3.496238219E1,-1.316052526E-1,7.384250641E0,9.841679573E0
3.498319518E1,1.004985496E-1,5.182853699E0,8.279166222E0
3.500400817E1,2.282752752E0,-8.805587292E-1,1.238764286E1
3.502482116E1,5.477170944E0,9.698110580E0,1.257188988E1
3.504566466E1,2.897708178E0,1.331127262E1,-2.811566591E0
3.506647765E1,-6.699903607E-1,6.221338734E-2,6.556333899E-1
3.508729064E1,-3.098705292E0,1.235175037E1,5.886343718E-1
3.510810363E1,-8.374879509E-2,-1.014556766E0,1.538584948E0
3.512891662E1,5.005784988E0,1.540499210E1,8.066205025E0
3.514972960E1,8.781659007E-1,5.194818020E0,-9.523434043E-1
3.517054259E1,9.707681656E0,-9.619147182E-1,4.632504463E0
3.519138610E1,1.268195957E-1,5.898307800E0,6.362515450E0
3.521219909E1,1.107876897E0,1.127498055E1,1.064566803E1
3.523301208E1,-2.632105052E-1,9.595218658E0,1.730010748E0
3.525382506E1,-2.335394859E0,1.163151073E1,8.075776100E0
3.527466857E1,3.570091486E0,4.134797573E0,9.999606133E0
3.529548156E1,1.859223247E0,7.405786037E0,1.317009544E1
3.531629455E1,2.187039852E0,8.571090698E0,7.922635555E0
3.533710753E1,-1.684547186E0,1.014556766E0,2.237289190E0
3.535795104E1,-8.987442017E0,8.975478172E0,7.805387497E0
3.537876403E1,6.221338749E0,5.874379635E0,1.444307709E1
3.539957702E1,6.266802311E0,7.116254330E0,1.440479279E0
3.542042052E1,6.580262184E-1,1.651047617E-1,3.306880951E0
3.544123351E1,4.575077057E0,1.060499001E1,8.456234932E0
3.546204650E1,-1.277767301E0,4.977071285E0,1.510828209E1
3.548285949E1,7.513462901E-1,1.324188042E1,8.133204460E0
3.550367248E1,3.270988464E0,2.845066071E0,1.919043779E0
3.552451598E1,1.395015597E0,1.090409279E1,1.943929100E1
3.554532897E1,1.780260086E0,1.062652493E1,1.199522018E1
3.556614196E1,7.274180651E-1,3.761517286E0,5.881557941E0
3.558698546E1,-3.876372576E-1,7.355536938E0,7.838887215E0
3.560779845E1,-2.656033039E-1,5.230710506E0,2.603390932E0
3.562861144E1,2.249253243E-1,6.908079147E0,5.687739372E0
3.564942443E1,1.871187329E0,7.123433113E0,7.123433113E0
3.567026793E1,-2.158325911E0,7.850851059E0,3.804588079E0
3.569108092E1,5.264209956E-2,2.656033039E0,9.757930756E0
3.571189391E1,1.392622828E0,1.175354481E1,1.359123230E1
3.573270690E1,2.062613010E0,8.449056625E0,6.630511761E0
3.575351989E1,2.213361025E0,7.606783390E0,6.474977970E0
3.577433288E1,1.435693622E0,4.345366001E0,5.343173027E0
3.579514586E1,-1.928615093E0,9.717252731E0,1.580459309E1
3.581598937E1,-6.843472719E-1,9.351150513E0,4.201796532E0
3.583680236E1,-4.350151539E0,7.147361279E0,2.653640270E0
3.585761535E1,5.828916073E0,9.432506561E0,1.017906761E1
3.587842833E1,-6.005984545E-1,9.561718941E0,1.239482117E1
3.589927184E1,3.266202927E0,8.291130066E0,1.070309544E1
3.592008483E1,-1.584048629E0,3.866801500E0,2.512463629E-1
3.594089782E1,1.261017561E0,7.800601959E0,1.429232979E1
3.596171080E1,2.723032236E0,1.585723591E1,1.021256733E1
3.598252379E1,5.211567879E0,-2.333002090E0,-6.819544435E-1
3.600336730E1,-8.592626572E0,1.520878029E1,9.772287369E0
3.602418029E1,8.111668587E0,-2.725425005E0,1.781934929E1
3.604499328E1,-5.132604599E0,1.780020714E1,1.459382534E1
3.606580626E1,-2.249253273E0,3.768695593E0,1.194018483E0
3.608661925E1,5.166104317E0,5.048855543E-1,9.087940216E0
3.610743224E1,7.465606928E-1,1.677368641E0,1.645065498E1
3.612827575E1,-8.973084688E-1,5.826523304E0,7.738388538E0
3.614908874E1,-1.024128079E0,1.375633717E1,1.021735287E1
3.616990172E1,-1.313659668E0,2.519642353E0,2.991028309E0
3.619071471E1,7.704889178E-1,7.176074982E0,1.185165024E1
3.621155822E1,-2.225325108E-1,8.987442017E0,8.374879509E-2
3.623237121E1,-1.301695466E0,1.801795483E0,-5.297709465E0
3.625318419E1,3.211168051E0,1.495992756E1,6.496513367E0
3.627399718E1,4.938786030E0,7.932207108E0,9.868000984E0
3.629481017E1,-7.202396393E-1,-1.452443361E0,4.297509670E0
3.631562316E1,5.268995285E0,8.317451477E0,7.587640762E0
3.633643615E1,5.003392220E0,4.448257446E0,1.265324593E1
3.635724914E1,1.016949654E0,7.255038261E0,6.979863644E0
3.637806212E1,1.497906923E0,4.539184570E0,6.017949104E0
3.639887511E1,1.320838094E0,3.000599623E0,9.367900848E0
3.641971862E1,1.150947690E0,9.293723106E0,2.115255117E0
3.644053161E1,4.967499733E0,3.412165165E0,2.962314367E0
3.646134459E1,-6.005984545E-1,1.270588779E1,7.408178806E0
3.648215758E1,3.404986620E0,3.139383316E0,8.114061356E0
3.650297057E1,2.689532757E0,7.111468792E0,1.066241741E1
3.652378356E1,2.646461725E0,4.019941807E0,1.355055428E1
3.654459655E1,3.292523861E0,2.531606436E0,8.810373306E0
3.656540954E1,9.978070259E-1,6.403193474E0,1.706082582E0
3.658622252E1,2.447857618E0,9.013762474E0,-2.488535494E-1
3.660703551E1,-3.206382394E-1,6.637690067E0,5.125426292E0
3.662784850E1,-4.737788737E-1,5.130211830E0,9.944570541E0
3.664866149E1,2.677568436E0,5.285745144E0,5.429314613E0
3.666950500E1,3.730410576E0,8.228917122E0,7.781459332E0
3.669031798E1,3.448057413E0,1.250489140E1,5.003392220E0
3.671113097E1,4.453042984E0,4.319045067E0,6.482156754E0
3.673194396E1,3.192025423E0,6.845865726E0,4.926821709E0
3.675278747E1,-1.617548108E0,9.255437851E0,2.486142635E0
3.677360045E1,-1.593619823E0,4.845465660E0,-3.641875982E0
3.679441344E1,1.966900229E0,6.898507595E0,9.772287369E0
3.681522643E1,9.332008660E-2,1.630708694E1,1.375872993E1
3.683603942E1,-1.062413216E0,4.622933388E0,4.311866283E0
3.685685241E1,1.423729420E0,9.439684868E0,1.252881908E1
3.687766540E1,3.390629768E0,5.367101192E0,1.352662659E1
3.689847838E1,3.759124279E0,8.417949677E0,9.248259544E0
3.691929137E1,3.682554007E0,2.065006018E0,6.929614544E0
3.694013488E1,1.593619823E0,1.176311588E1,1.435454273E1
3.696094787E1,3.826123476E0,6.393621922E0,6.479763508E0
3.698173034E1,1.234696507E0,3.924229145E0,9.848857880E0
3.700254333E1,1.718046665E0,6.446264267E0,1.045424175E1
3.702335631E1,3.751945972E0,8.123632431E0,1.158604717E1
3.704419982E1,9.403793216E-1,6.388836384E0,5.008177757E0
3.706501281E1,1.323230863E0,2.490928411E0,4.771288395E0
3.708582580E1,-3.048455954E0,1.065284634E1,1.758246040E1
3.710663878E1,-9.523434043E-1,1.327298737E1,6.573083878E0
3.712745177E1,1.682154298E0,-1.679761529E0,1.538584948E0
3.714826476E1,-3.948157430E-1,1.428515148E1,1.166022491E1
3.716907775E1,1.859223247E0,1.002353382E1,1.297867012E1
3.718989074E1,-1.971685886E0,6.881757736E0,7.417750359E0
3.721070372E1,-2.919243574E-1,1.215553856E1,1.083470058E1
3.723151671E1,1.000199914E0,8.018348694E0,7.405786037E0
3.725232970E1,-3.457628727E0,1.088255692E1,8.690732002E0
3.727314269E1,3.716053486E0,8.965906143E0,2.117648125E0
3.729395568E1,-4.103690624E0,1.916650891E0,9.690931320E0
3.731476867E1,-8.712266922E0,1.781934929E1,2.316730881E1
3.733558166E1,7.472784996E0,8.097311974E0,9.934999466E0
3.735642516E1,-3.945764542E0,1.620180130E1,6.247660160E0
3.737723815E1,1.158126116E0,2.483749866E0,2.751746178E-1
3.739805114E1,5.522634506E0,6.161518097E0,9.327222824E0
3.741886412E1,-3.349951744E0,7.568498135E0,8.461020470E0
3.743967711E1,7.130611539E-1,3.921836376E0,5.807380676E0
3.746052062E1,2.725425005E0,8.693124771E0,8.264809608E0
3.748133361E1,-5.240281820E-1,6.666403770E0,7.891529083E0
3.750214660E1,3.081955671E0,8.403593063E0,8.508877754E0
3.752295958E1,-1.100698411E-1,8.865407944E0,5.812166214E0
3.754377257E1,7.944171429E-1,9.262616158E0,6.281159401E0
3.756458556E1,1.911865234E0,6.764509678E0,5.120640278E0
3.758539855E1,-3.110669367E-2,6.099305153E0,6.285944939E0
3.760621154E1,1.012163997E0,5.752345562E0,3.873979807E0
3.762702453E1,-1.165304661E0,9.461220741E0,6.384050846E0
3.764783751E1,-1.153340459E0,8.286344528E0,3.507878065E0
3.766868102E1,-1.538584948E0,7.422535896E0,4.898108006E0
3.768946349E1,-5.407779217E-1,7.374679565E0,6.204588890E0
3.771030700E1,1.531406492E-1,7.192824841E0,5.000999451E0
3.773111998E1,2.871387079E-2,9.789037704E0,4.871787071E0
3.775193297E1,2.146361828E0,7.322037220E0,5.044070244E0
3.777274596E1,1.490728498E0,8.714659691E0,6.565905571E0
3.779355895E1,1.050449133E0,7.788637638E0,4.914857864E0
3.781437194E1,2.742174864E0,8.719446182E0,6.563512325E0
3.783518493E1,8.279166222E-1,7.307680130E0,3.036491871E0
3.785599792E1,1.428515077E0,7.149754047E0,8.877372146E-1
3.787681090E1,3.330809116E0,5.903093338E0,3.227917671E0
3.789762389E1,2.871387079E-2,1.068873882E1,2.926422119E0
3.791843688E1,2.371287346E0,6.367300987E0,3.046063185E0
3.793928038E1,2.084148407E0,8.518448830E0,6.563512325E0
3.796009337E1,9.236295223E-1,8.504091263E0,4.453042984E0
3.798090636E1,2.632104874E0,5.063212872E0,3.541377485E-1
3.800171935E1,2.208575249E0,8.566305161E0,7.185646534E0
3.802253234E1,2.199003935E0,8.518448830E0,2.868994236E0
3.804334533E1,2.505285263E0,7.680960655E0,3.524627686E0
3.806418883E1,2.445464849E0,5.804987907E0,1.617548108E0
3.808500182E1,3.237488985E0,8.583054543E0,6.632904530E0
3.810581481E1,3.038884699E-1,1.229193020E1,2.232503414E0
3.812662780E1,2.847458839E0,1.555334777E-1,3.426522017E0
3.814741027E1,6.771687865E-1,1.471107388E1,7.111468792E0
3.816822326E1,1.452443361E0,2.536391973E0,7.087540627E0
3.818903625E1,1.988435626E0,1.152622700E1,-3.431307554E0
3.820984923E1,1.249053478E0,-3.711267948E0,-3.443271875E0
3.823066222E1,-7.513462901E-1,1.323470211E1,-3.364308596E0
3.825147521E1,2.344966233E-1,7.537391186E-1,-5.647061348E0
3.827228820E1,6.053841114E-1,6.532405853E0,1.088734269E0
3.829310119E1,5.096712112E-1,7.755138397E0,1.507478237E0
3.831391417E1,3.622733593E0,7.984848976E0,1.651047617E-1
3.833472716E1,6.484549642E-1,6.388836503E-1,4.139583111E-1
3.835554015E1,-2.081755638E0,9.296115875E0,8.142775536E0
3.837632262E1,-2.354537487E0,8.197810173E0,-1.914258152E-1
3.839713561E1,-7.465606928E-1,-4.474578202E-1,2.050648928E0
3.841797912E1,4.689932466E-1,1.371087360E1,1.398365593E1
3.843876159E1,1.842473388E0,1.084666538E1,1.040877819E1
3.845957458E1,-1.105484009E0,7.999206066E0,1.577109432E1
3.848038756E1,1.237089276E0,1.036092186E1,1.212921810E1
3.850120055E1,3.565305769E-1,2.000399828E0,2.244467735E0
3.852204406E1,-1.040877819E1,1.082991505E1,1.273699474E1
3.854282653E1,5.862415314E0,2.068834496E1,1.173679543E1
3.856363952E1,1.550549030E0,-4.689932346E0,-2.395215511E0
3.858445250E1,3.211168051E0,8.413164139E0,2.251406860E1
3.860529601E1,5.034498692E0,7.692924976E0,1.513699627E1
3.862610900E1,-1.998006940E0,1.056431198E1,2.165265274E1
3.864689147E1,1.483550072E0,6.597012043E0,1.336630726E1
3.866770446E1,1.526620865E0,7.812565804E0,1.410808277E1
3.868851745E1,-3.919443607E0,1.026042366E1,3.862015724E0
3.870933043E1,-1.660618901E0,2.000399828E0,2.502892494E0
3.873017394E1,-7.135396957E0,1.274895859E1,1.986042738E0
3.875095641E1,-4.472185612E0,9.454042435E0,9.164510965E-1
3.877176940E1,1.722832322E0,5.991627693E0,1.474696636E1
3.879258239E1,-2.457428932E0,1.408654690E1,-1.354337573E0
3.881339538E1,1.904686809E0,1.713261008E0,-3.347558975E0
3.883420836E1,-2.912065268E0,8.650053978E0,-6.106483459E0
3.885502135E1,-6.628118753E-1,4.529613495E0,1.694118381E0
3.887583434E1,1.339980721E0,1.160997581E1,2.019542217E0
3.889664733E1,1.076770186E0,4.979464054E0,1.225125194E0
3.891746032E1,-1.892722726E0,1.066959572E1,5.601597786E0
3.893827330E1,3.929014683E0,3.773481369E0,5.400600910E0
3.895908629E1,-6.068198204E0,7.439285755E0,7.374679565E0
3.897989928E1,-3.424129248E0,6.156732559E0,5.505885124E0
3.900071227E1,1.136590719E0,3.672982693E0,5.718846321E0
3.902152526E1,5.601597786E0,4.778466702E0,4.807180882E0
3.904233825E1,1.280160069E0,2.196611166E0,6.771687865E-1
3.906315124E1,-1.533799291E0,1.289013577E1,-3.601198196E0
3.908396422E1,2.177468538E0,3.136990547E0,-2.632104874E0
3.910477721E1,-8.135597110E-1,5.773880959E0,2.682354212E0
3.912559020E1,1.887937069E0,4.718646049E0,7.424928665E0
3.914643371E1,1.552941918E0,3.163311481E0,4.388436794E0
3.916724669E1,8.685946465E-1,5.960521221E0,3.885943890E0
3.918805968E1,-5.407779217E-1,8.934800148E0,6.187839508E0
3.920887267E1,-3.759124279E0,8.147561073E0,2.969492912E0
3.922968566E1,-3.548556089E0,7.101897717E0,4.522434711E0
3.925049865E1,3.536591768E0,7.970492363E0,5.778666496E0
3.927131164E1,2.084148407E0,8.446663857E0,3.259024382E0
3.929212462E1,3.086741209E0,1.131326580E1,7.568498135E0
3.931293761E1,1.227517962E0,5.278566837E0,4.840680122E0
3.933375060E1,1.103091240E0,9.068798065E0,8.018348694E0
3.935459411E1,1.172483087E0,8.250452042E0,6.161518097E0
3.937540709E1,-4.737788737E-1,1.166740322E1,1.010010433E1
3.939622008E1,4.546363056E-1,6.850651264E0,9.437292099E0
3.941703307E1,2.665604353E0,7.812565804E0,1.042313576E1
3.943784606E1,1.265803218E0,4.194618225E0,8.843872070E0
3.945865905E1,3.883551121E0,9.556933403E0,1.146879864E1
3.947947204E1,1.840080619E0,5.804987907E0,7.396214962E0
3.950028502E1,2.447857618E0,7.769495010E0,1.061695385E1
3.952109801E1,1.607976794E0,7.269395351E0,9.255437851E0
3.954194152E1,2.622533560E0,5.218746185E0,9.939785004E0
3.956275451E1,3.993621111E0,7.657032490E0,1.024367332E1
3.958353698E1,5.766702294E-1,5.927021503E0,9.116654396E0
3.960434997E1,4.086941242E0,6.369693756E0,7.654639721E0
3.962516295E1,9.260223508E-1,6.697510719E0,8.413164139E0
3.964600646E1,3.907479286E0,8.159524918E0,9.525827408E0
3.966681945E1,3.038884640E0,6.630511761E0,7.185646534E0
3.968763244E1,1.780260086E0,7.331608772E0,8.286344528E0
3.970844542E1,2.199003935E0,6.587440968E0,7.496713161E0
3.972925841E1,1.493121386E0,9.044869423E0,8.331808090E0
3.975007140E1,1.579262972E0,8.453842163E0,7.520641804E0
3.977088439E1,4.929214716E-1,5.735595703E0,7.319644451E0
3.979166686E1,2.081755698E-1,6.185446739E0,7.575676441E0
3.981247985E1,1.378265858E0,7.779066563E0,8.597412109E0
3.983329284E1,1.019342422E0,8.714659691E0,7.846065521E0
3.985413634E1,5.096712112E-1,6.032305717E0,5.960521221E0
3.987494933E1,-1.914258115E-2,4.601397991E0,7.633104324E0
3.989576232E1,3.493520975E0,8.769695282E0,1.080838013E1
3.991657531E1,1.737189293E0,7.209574699E0,1.332802176E0
3.993738830E1,2.512463808E0,2.416750908E0,5.857629776E0
3.995820128E1,1.584048629E0,8.609375954E0,6.668796539E0
3.997901427E1,1.071984529E0,4.522434711E0,1.139462185E1
3.999982726E1,8.159525394E-1,1.209093285E1,7.484749317E0
4.002064025E1,-1.674975827E-2,5.096712112E-1,3.969692707E0
4.004145324E1,-5.096712112E-1,1.210768223E1,1.973360825E1
4.006229674E1,-3.302095234E-1,4.331008911E0,1.016710377E1
4.008310973E1,-1.440479279E0,8.327022552E0,7.891529083E0
4.010392272E1,2.012363911E0,7.338787079E0,3.876372576E0
4.012473571E1,-1.136590719E0,4.771288395E0,5.242674351E0
4.014554870E1,1.564906001E0,9.621540070E0,9.221938133E0
4.016636168E1,3.306880951E0,4.776073933E0,4.335794449E0
4.018717467E1,3.326023519E-1,7.671389580E0,6.951149940E0
4.020798766E1,2.761317253E0,8.779266357E0,4.115654945E0
4.022880065E1,-4.570291340E-1,6.307480335E0,7.331608772E0
4.024961364E1,1.409372568E0,6.898507595E0,5.139782906E0
4.027042662E1,1.155733347E0,6.419943333E0,6.046662807E0
4.029123961E1,-3.517449200E-1,4.424329281E0,3.299702406E0
4.031205260E1,9.667003751E-1,4.723432064E0,6.175875187E0
4.033286559E1,-1.981257200E0,9.808179855E0,1.032502937E1
4.035367858E1,7.369893789E-1,6.494120598E0,7.475177765E0
4.037452208E1,4.115654826E-1,8.109275818E0,9.865608215E0
4.039533507E1,-1.062413216E0,8.922835350E0,1.257188988E1
4.041614806E1,3.390629768E0,9.669396400E0,9.652647018E0
4.043696105E1,3.349951655E-2,5.642275810E0,5.960521221E0
4.045777404E1,2.498106956E0,1.046859932E1,1.703211212E1
4.047858703E1,-2.392822690E-2,9.114261627E0,8.585447311E0
4.049943053E1,-7.896314859E-1,9.348757744E0,1.228714466E1
4.052021300E1,4.713860512E0,8.798408508E0,9.494720459E0
4.054105651E1,9.619147182E-1,8.334200859E0,1.172483063E1
4.056186950E1,6.891329288E-1,7.853243828E0,8.147561073E0
4.058268248E1,1.036092162E0,5.814558983E0,9.690931320E0
4.060349547E1,9.930213690E-1,1.169133186E1,9.133403778E0
4.062430846E1,-4.737788737E-1,2.787638426E0,3.397808075E-1
4.064512145E1,-2.488535494E-1,6.546762943E0,6.218945980E0
4.066596496E1,-9.020941257E-1,8.070990562E0,7.554141045E0
4.068678894E1,4.130012035E0,6.175875187E0,5.510670662E0
4.070760193E1,-3.505485058E0,1.116969585E1,1.914258152E-1
4.072841492E1,2.914458036E0,2.313859463E0,-6.293123364E-1
4.074922791E1,-2.974278450E0,1.033220863E1,9.690931320E0
4.077007141E1,3.675375462E0,9.353543282E0,1.244267821E0
4.079088440E1,-2.830709219E0,1.246660590E0,-1.564906001E0
4.081166687E1,9.332008362E-1,1.177747345E1,1.711107445E1
4.083251038E1,-1.462014675E0,1.270110226E1,1.049252701E1
4.085332337E1,2.024327993E0,5.426921844E0,6.396014690E0
4.087413636E1,9.332008660E-2,1.317488194E1,1.123430252E1
4.089494934E1,4.709074974E0,6.886543751E0,1.899183273E1
4.091576233E1,-1.387837172E0,1.264606762E1,5.493920803E0
4.093657532E1,3.153740168E0,1.428515077E0,9.391828537E0
4.095738831E1,-5.575276613E-1,1.811845398E1,1.276092339E1
4.097820130E1,-2.943171859E-1,5.998806477E0,5.032105923E0
4.099901428E1,2.414358139E0,1.066959572E1,1.285424328E1
4.101982727E1,3.187239647E0,3.340380430E0,7.389036179E0
4.104064026E1,-6.795616150E-1,6.704689026E0,7.817351341E0
4.106145325E1,-3.326023519E-1,1.216271782E1,5.745167255E0
4.108229676E1,3.397808075E-1,1.251446247E0,8.848658562E0
4.110310974E1,-1.368694544E0,1.194257736E1,1.236850071E1
4.112392273E1,2.653640270E0,3.917050600E0,1.104287624E1
4.114473572E1,1.591227055E0,1.199282742E1,1.164108181E1
4.116554871E1,1.239482164E0,6.113661766E0,7.255038261E0
4.118636170E1,-4.594219327E-1,3.507878065E0,1.401954746E1
4.120717469E1,4.917250633E0,5.900700569E0,1.077248764E1
4.122798767E1,3.373879910E0,5.769095421E0,5.520241737E0
4.124880066E1,5.099104881E0,6.680760860E0,4.328616142E0
4.126961365E1,1.189232826E0,5.383851051E0,9.674181938E0
4.129042664E1,2.287538528E0,8.425128937E0,9.023334503E0
4.131123963E1,-1.210768223E0,1.104287624E1,9.781859398E0
4.133205262E1,6.049055576E0,5.106283665E0,6.350551128E0
4.135286560E1,-2.756531715E0,9.274580956E0,1.195932770E1
4.137367859E1,-1.921436548E0,6.707081795E0,6.853044033E0
4.139452210E1,1.146162033E0,8.977870941E0,4.625326157E0
4.141533508E1,-5.503492057E-2,7.683353424E0,3.457628727E0
4.143614807E1,5.072783828E-1,1.007617569E1,2.883351326E0
4.145696106E1,1.270588875E0,7.111468792E0,1.000199914E0
4.147777405E1,1.024128079E0,1.038724327E1,3.036491871E0
4.149858704E1,9.523434043E-1,6.422336102E0,9.810572863E-1
4.151943054E1,7.896314561E-2,8.980263710E0,3.893122435E0
4.154024353E1,1.296909928E0,9.300901413E0,1.067198873E0
4.156108704E1,-6.939185858E-1,7.587640762E0,9.260223508E-1
4.158190003E1,5.359922647E-1,9.171689034E0,6.436692715E0
4.160271302E1,-3.541377485E-1,8.434700012E0,7.582854748E0
4.162352600E1,-5.623133183E-1,7.300501823E0,5.881557941E0
4.164433899E1,-1.095912814E0,7.850851059E0,8.599804878E0
4.166515198E1,-7.130611539E-1,7.740781307E0,1.110748291E1
4.168596497E1,7.968099117E-1,8.154739380E0,5.867201328E0
4.170680847E1,-1.629512191E0,7.154539585E0,8.973084450E0
4.172762146E1,1.619940877E0,7.664210796E0,9.655039787E0
4.174843445E1,-1.354337573E0,6.690331936E0,5.972485542E0
4.176924744E1,3.852444589E-1,8.317451477E0,3.699303865E0
4.179006043E1,-1.531406492E-1,7.580461979E0,2.713460922E0
4.181087342E1,2.009970993E-1,5.453242779E0,1.378265858E0
4.183168640E1,4.737788737E-1,7.209574699E0,1.162911773E0
4.185249939E1,5.503492355E-1,6.656832695E0,1.194018483E0
4.187331238E1,-6.699903309E-2,6.687939167E0,9.499505758E-1
4.189412537E1,1.435693622E0,7.960920811E0,4.055834293E0
4.191496887E1,-4.546362907E-2,7.783852100E0,1.359123230E0
4.193578186E1,1.131805062E0,6.865008354E0,2.864208698E0
4.195659485E1,9.978070259E-1,7.690532207E0,4.697110653E0
4.197740784E1,1.459621787E-1,8.456234932E0,4.225724697E0
4.199822083E1,8.733802438E-1,7.295716286E0,3.333201885E0
4.201903382E1,2.031506538E0,6.192625046E0,5.441278458E0
4.203984680E1,1.351944804E0,8.441878319E0,6.965506554E0
4.206069031E1,1.122233868E0,6.869793892E0,2.687139750E0
4.208150330E1,2.057827473E0,6.544369698E0,3.294916868E0
4.210234680E1,4.570291340E-1,7.302894592E0,4.371686935E0
4.212315979E1,1.763510346E0,7.104290485E0,2.239681959E0
4.214397278E1,1.313659668E0,7.365108013E0,5.754738331E0
4.216478577E1,-1.555334777E-1,8.140382767E0,5.379065514E0
4.218559876E1,3.756731451E-1,6.058627129E0,4.890929699E0
4.220644226E1,-1.330409408E0,8.504091263E0,8.023134232E0
4.222725525E1,-8.853443712E-2,8.439485550E0,5.979663849E0
4.224806824E1,-1.844866276E0,9.011369705E0,6.386443615E0
4.226891175E1,5.982056856E-1,6.735795975E0,6.939185619E0
4.228972473E1,2.725425005E0,7.678567886E0,9.858428955E0
4.231053772E1,7.345965505E-1,1.013838959E1,9.162117958E0
4.233135071E1,2.464607239E0,7.214360237E0,8.578269005E0
4.235219422E1,2.766103029E0,9.473184586E0,1.028435135E1
4.237300720E1,3.158525825E-1,6.862615108E0,6.106483459E0
4.239378968E1,4.074976921E0,9.078369141E0,4.426722050E0
4.241463318E1,4.283152521E-1,7.070790768E0,1.033699393E0
4.243544617E1,1.478764415E0,8.805587769E0,3.962514400E0
4.245625916E1,3.493520916E-1,7.269395351E0,2.416750908E0
4.247707215E1,-5.742774159E-2,6.472585201E0,4.890929699E0
4.249788513E1,6.843472719E-1,8.827122688E0,5.790630817E0
4.251869812E1,-1.701296926E0,6.149554253E0,3.857230186E0
4.253954163E1,1.938186288E0,8.975478172E0,1.196889877E1
4.256035462E1,9.571290575E-3,9.702896118E0,7.948956966E0
4.258116761E1,1.907079697E0,8.269595146E0,9.142974854E0
4.260198059E1,2.675175667E0,9.087940216E0,9.784252167E0
4.262279358E1,5.575276613E-1,6.735795975E0,3.139383316E0
4.264360657E1,3.007778168E0,8.398807526E0,4.182653904E0
4.266445008E1,1.100698411E-1,8.965906143E0,1.892722726E0
4.268526306E1,1.887937069E0,6.659225464E0,1.782652855E0
4.270607605E1,8.255237937E-1,7.814958572E0,3.416950703E0
4.272688904E1,2.943171859E-1,8.200202942E0,6.431907177E0
4.274770203E1,6.484549642E-1,9.131011009E0,8.154739380E0
4.276854554E1,-1.505085468E0,8.953942299E0,4.256831646E0
4.278935852E1,1.634297848E0,5.120640278E0,8.453842163E0
4.281017151E1,2.285145521E0,8.839086533E0,8.274380684E0
4.283098450E1,-1.103091240E0,5.146961689E0,6.541976929E0
4.285179749E1,1.555334687E0,9.791430473E0,5.592026711E0
4.287261048E1,3.326023519E-1,5.661418438E0,2.282752752E0
4.289345398E1,3.134597540E-1,1.026042366E1,6.934400082E0
4.291426697E1,1.919043779E0,7.470392227E0,-1.409372568E0
4.293507996E1,5.192425251E-1,-2.081755698E-1,-3.349951804E-1
4.295589295E1,1.442872047E0,1.161954689E1,-1.265803218E0
4.297673645E1,-2.024327993E0,2.108076811E0,-1.227517962E0
4.299754944E1,-1.196411327E-1,1.139940739E1,9.734002113E0
4.301836243E1,3.416950703E0,8.094919205E0,7.566105366E0
4.303917542E1,1.777867198E0,7.152146816E0,1.069352436E1
4.305998841E1,-3.680161238E0,6.831508636E0,8.982656479E0
4.308080139E1,1.040877819E0,9.777072906E0,1.324666595E1
4.310161438E1,3.962514400E0,1.214357471E1,1.128455162E1
4.312242737E1,3.043670416E0,7.546962738E0,1.021017456E1
4.314327088E1,5.242674351E0,7.365108013E0,8.611768723E0
4.316408386E1,-1.284945726E0,9.408578873E0,3.347558975E0
4.318489685E1,-1.208375454E0,2.266003132E0,5.740381718E0
4.320570984E1,2.277967215E0,1.439761353E1,9.621540070E0
4.322652283E1,1.579262912E-1,5.618347645E0,3.146561861E0
4.324733582E1,1.210768223E0,9.674181938E0,5.596812248E0
4.326817932E1,6.149554253E-1,3.148954630E0,1.447657704E0
4.328899231E1,1.361516118E0,3.876372576E0,5.347958565E0
4.330980530E1,-2.703889608E-1,1.602712631E1,8.932407379E0
4.333061829E1,1.531406492E-1,6.628118515E0,3.431307554E0
4.335143128E1,-5.120640397E-1,1.916650891E0,8.738588333E0
4.337227478E1,-2.464607358E-1,3.962514400E0,1.334237862E1
4.339308777E1,3.560520172E0,1.732882118E1,1.366541004E1
4.341387024E1,2.837887764E0,5.292923450E0,3.996013701E-1
4.343471375E1,1.655833244E0,1.974078655E0,5.565705299E0
4.345552674E1,6.604190469E-1,2.321038008E0,5.132604599E0
4.347633972E1,1.981257200E0,8.159524918E0,5.455635548E0
4.349715271E1,8.231309652E-1,8.886942863E0,-2.658426046E0
4.351796570E1,1.313659668E0,5.144568920E0,2.782852650E0
4.353880921E1,3.900300980E0,5.041677475E0,2.533999205E0
4.355962220E1,-8.614161611E-1,6.855436802E0,4.051048756E0
4.358043518E1,-1.004985452E0,1.116969585E1,7.188039303E0
4.360127869E1,-9.762716293E-1,9.073583603E0,4.187439442E0
4.362209168E1,2.416750938E-1,1.124865913E1,1.196172047E1
4.364290466E1,7.752745152E-1,9.025727272E0,1.100937653E1
4.366371765E1,1.875972986E0,7.657032490E0,6.333801746E0
4.368453064E1,2.285145521E0,8.568697929E0,1.086102200E1
4.370537415E1,2.998206854E0,9.463613510E0,9.052047729E0
4.372618714E1,1.361516118E0,6.850651264E0,4.974678040E0
4.374700012E1,1.579262912E-1,7.094718933E0,3.701696634E0
4.376781311E1,-1.244267747E-1,4.886143684E0,1.629512191E0
4.378865662E1,2.651247501E0,9.997213364E0,5.486742496E0
4.380946961E1,6.460621208E-2,7.635497093E0,3.373879790E-1
4.383028260E1,3.876372576E-1,5.422136307E0,1.306481123E0
4.385109558E1,6.771687865E-1,7.960920811E0,5.862415314E0
4.387190857E1,1.354337573E0,6.350551128E0,2.199003935E0
4.389272156E1,-1.770688742E-1,7.791030407E0,3.625126362E0
4.391353455E1,1.076770186E0,7.503891945E0,2.141576290E0
4.393437805E1,3.684946895E-1,7.042077065E0,3.981656790E0
4.395519104E1,7.824530005E-1,9.131011009E0,2.971885681E0
4.397600403E1,8.039883971E-1,8.688339233E0,6.266802311E0
4.399681702E1,-2.031506538E0,1.103091240E1,4.977071285E0
4.401763001E1,4.857429862E-1,4.374079704E0,4.103690624E0
4.403844300E1,-8.733802438E-1,9.332008362E0,5.321637630E0
4.405928650E1,-1.603191137E0,8.982656479E0,5.505885124E0
