"Time (s)","Acceleration x (m/s^2)","Acceleration y (m/s^2)","Acceleration z (m/s^2)"
1.383588300E-2,2.703889608E0,7.063612461E0,5.639883041E0
3.470727800E-2,1.081555843E0,7.590033531E0,7.010970116E0
5.555078400E-2,3.948157310E0,6.544369698E0,5.891129494E0
7.639429000E-2,1.150947690E0,8.085348129E0,5.970092297E0
9.723779500E-2,2.840280533E0,6.728617191E0,5.551348686E0
1.181118190E-1,1.801795483E0,7.929814339E0,6.250052929E0
1.389553250E-1,1.978864312E0,6.862615108E0,5.182853699E0
1.597988310E-1,2.421536446E0,8.030312538E0,5.288137913E0
1.806728540E-1,1.488335729E0,6.752545357E0,5.118247509E0
2.015163600E-1,2.708675146E0,7.788637638E0,5.661418438E0
2.223598660E-1,1.332802176E0,7.147361279E0,5.149354458E0
2.432033720E-1,2.758924484E0,7.613961697E0,5.146961689E0
2.640773950E-1,1.459621787E0,6.920042992E0,5.280959606E0
2.849209010E-1,2.586641312E0,7.544569969E0,5.584847927E0
3.057644070E-1,1.682154298E0,7.420143127E0,5.343173027E0
3.266384300E-1,2.380858421E0,7.276573658E0,5.242674351E0
3.474819360E-1,1.907079697E0,7.269395351E0,5.594419479E0
3.683254420E-1,2.258824587E0,7.386643410E0,5.625525951E0
3.891994650E-1,2.062613010E0,7.381857872E0,5.749952793E0
4.100429710E-1,2.230110645E0,7.137789726E0,5.692524910E0
4.309169950E-1,2.136790514E0,7.341179848E0,6.020341873E0
4.517605000E-1,2.340180635E0,7.025327206E0,5.771488190E0
4.726040060E-1,2.222932339E0,7.341179848E0,6.230910301E0
4.934475120E-1,2.029113531E0,7.652246952E0,5.946164131E0
5.143215360E-1,2.258824587E0,8.726624489E0,7.140182972E0
5.351650420E-1,2.266003132E0,7.027719975E0,6.094519138E0
5.560390650E-1,2.143969059E0,8.042277336E0,6.422336102E0
5.768825710E-1,2.366501570E0,7.037291527E0,5.644668579E0
5.977260770E-1,2.230110645E0,7.781459332E0,6.273981094E0
6.185695830E-1,2.282752752E0,6.611369133E0,5.391029358E0
6.394436060E-1,2.285145521E0,7.932207108E0,5.903093338E0
6.602871120E-1,2.129612207E0,6.774080753E0,5.111069202E0
6.811306180E-1,2.407179594E0,8.116454124E0,5.584847927E0
7.020046410E-1,2.419143677E0,6.209374905E0,4.295116425E0
7.228481470E-1,1.473978758E0,7.936992645E0,5.369493961E0
7.436916530E-1,2.414358139E0,7.322037220E0,5.221138954E0
7.645656760E-1,1.648654819E0,7.300501823E0,5.982056618E0
7.854091820E-1,2.445464849E0,6.501298904E0,5.218746185E0
8.062526880E-1,2.366501570E0,7.551748276E0,6.104090691E0
8.270961940E-1,2.545963287E0,6.238088608E0,5.166104317E0
8.479702170E-1,2.550748825E0,7.707281590E0,5.929414749E0
8.688137230E-1,2.024327993E0,7.073183537E0,5.496313572E0
8.896572290E-1,2.333002090E0,7.956135273E0,5.840879917E0
9.105007350E-1,1.737189293E0,7.338787079E0,5.424529076E0
9.313442410E-1,2.072184324E0,8.075776100E0,6.068198204E0
9.522182640E-1,1.703689694E0,7.044469833E0,5.644668579E0
9.730617700E-1,1.976471543E0,8.030312538E0,6.178267956E0
9.939052760E-1,1.966900229E0,7.056434155E0,5.613562107E0
1.014748782E0,2.146361828E0,7.992027760E0,6.427121639E0
1.035622805E0,2.244467735E0,6.826723099E0,5.742774487E0
1.056466311E0,2.120040894E0,7.972885132E0,6.151947021E0
1.077309817E0,2.196611166E0,7.022934437E0,5.608776093E0
1.098153323E0,2.165504456E0,7.716853142E0,6.477370739E0
1.118996829E0,2.134397745E0,6.735795975E0,5.836094379E0
1.139870852E0,2.189432621E0,7.853243828E0,6.273981094E0
1.160714358E0,2.132004976E0,6.824330330E0,5.680561066E0
1.181557864E0,2.301895380E0,7.781459332E0,6.455835342E0
1.202431887E0,2.093719721E0,6.790830612E0,5.824130535E0
1.223275393E0,2.258824587E0,7.932207108E0,6.128018856E0
1.244118899E0,2.041077614E0,7.180860519E0,5.680561066E0
1.264962405E0,2.275574446E0,8.032705307E0,6.563512325E0
1.285805911E0,2.026720762E0,6.812366009E0,5.879165173E0
1.306679934E0,2.213361025E0,8.102097511E0,6.604190350E0
1.327523440E0,1.935793519E0,7.393822193E0,5.603990555E0
1.348366946E0,1.957328916E0,8.109275818E0,5.536991596E0
1.369240969E0,1.974078655E0,7.618747234E0,5.670989513E0
1.390084475E0,1.830509305E0,6.922435760E0,5.051248550E0
1.410927981E0,2.258824587E0,8.350951195E0,6.594619274E0
1.431771487E0,2.086541414E0,6.381658077E0,5.084748268E0
1.452645510E0,2.356930256E0,6.630511761E0,5.175675392E0
1.473489016E0,2.316252232E0,8.793622971E0,6.496513367E0
1.494332522E0,2.349751949E0,6.448657036E0,4.905286312E0
1.515176028E0,2.000399828E0,6.340980053E0,5.711667538E0
1.536050051E0,2.172683001E0,8.408378601E0,4.878965378E0
1.556893557E0,2.498106956E0,8.434700012E0,7.377072334E0
1.577737063E0,2.388036966E0,6.704689026E0,5.276174068E0
1.598580569E0,2.136790514E0,6.594619274E0,5.163711071E0
1.619454592E0,2.222932339E0,7.836493969E0,4.402793884E0
1.640298098E0,2.316252232E0,8.599804878E0,5.570491314E0
1.661141604E0,2.440679073E0,8.075776100E0,7.188039303E0
1.681985110E0,2.471785784E0,6.879364967E0,5.534598827E0
1.702828616E0,2.220539331E0,6.644868374E0,4.733003139E0
1.723702639E0,2.206182480E0,7.791030407E0,3.747160196E0
1.744515627E0,1.942971945E0,9.250652313E0,5.682953835E0
1.765389651E0,2.182254314E0,8.202595711E0,5.857629776E0
1.786233157E0,2.086541414E0,6.742974281E0,5.146961689E0
1.807076663E0,2.199003935E0,7.609176159E0,4.809573650E0
1.827920168E0,2.117648125E0,8.894122124E0,6.120840549E0
1.848763674E0,2.127219439E0,7.573283672E0,4.761716843E0
1.869607180E0,2.227717876E0,6.812366009E0,5.041677475E0
1.890481204E0,2.206182480E0,8.188239098E0,4.857429981E0
1.911324709E0,2.222932339E0,8.020741463E0,5.958128452E0
1.932168215E0,2.033899307E0,6.245266914E0,4.493721008E0
1.953011721E0,2.163111687E0,8.331808090E0,5.670989513E0
1.973855227E0,2.258824587E0,7.970492363E0,5.606383324E0
1.994698733E0,2.108076811E0,6.326622963E0,4.654039860E0
2.015572756E0,2.249253273E0,9.114261627E0,6.702296257E0
2.036416262E0,2.041077614E0,7.700103283E0,4.591826439E0
2.057259768E0,1.722832322E0,7.281359196E0,4.390829563E0
2.078103274E0,2.081755638E0,9.444471359E0,5.589633465E0
2.098977297E0,1.873580098E0,7.295716286E0,5.446064472E0
2.119820803E0,1.990828395E0,8.161917686E0,4.240081787E0
2.140664309E0,1.904686809E0,8.626125336E0,5.434100151E0
2.161507815E0,1.818545222E0,6.565905571E0,4.610969067E0
2.182351321E0,1.804188251E0,8.815158844E0,6.029912949E0
2.203225344E0,1.835294962E0,7.173682213E0,4.661218643E0
2.224068850E0,1.885544300E0,6.788437843E0,4.101297855E0
2.244912356E0,2.005185366E0,8.621339798E0,5.752345562E0
2.265786379E0,2.088934183E0,6.587440968E0,4.110869408E0
2.286629885E0,2.175075769E0,8.391629219E0,6.149554253E0
2.307473391E0,1.976471543E0,8.461020470E0,4.692325115E0
2.328347415E0,1.593619823E0,6.932007313E0,3.914657831E0
2.349190920E0,2.048256159E0,9.056833267E0,6.434299946E0
2.370034426E0,1.703689694E0,7.946564198E0,4.859822750E0
2.390908450E0,1.615155339E0,6.912864685E0,4.587040901E0
2.411751956E0,1.749153376E0,8.764909744E0,5.400600910E0
2.432595461E0,1.842473388E0,7.896314621E0,5.383851051E0
2.453438967E0,1.744367719E0,6.479763508E0,4.450650215E0
2.474312991E0,2.012363911E0,8.061419487E0,4.476971149E0
2.495156497E0,1.875972986E0,8.626125336E0,6.439085960E0
2.516000002E0,1.878365755E0,6.350551128E0,3.929014683E0
2.536843508E0,1.423729420E0,6.668796539E0,4.610969067E0
2.557717532E0,1.966900229E0,8.539983749E0,5.309673309E0
2.578561038E0,2.165504456E0,7.836493969E0,6.702296257E0
2.599435061E0,1.871187329E0,6.778866768E0,5.733202934E0
2.620278567E0,2.029113531E0,7.628318787E0,4.457828522E0
2.641122073E0,2.021935225E0,8.360522270E0,6.400800705E0
2.661996096E0,2.254039049E0,7.542177200E0,5.525027275E0
2.682839602E0,1.840080619E0,6.582654953E0,4.589433670E0
2.703683108E0,2.548356056E0,6.867401123E0,3.598805189E0
2.724557131E0,1.787438512E0,7.975277901E0,6.044270039E0
2.745400637E0,2.258824587E0,7.221538544E0,6.082555294E0
2.766244143E0,1.775474429E0,6.678368092E0,5.888736725E0
2.787118167E0,1.931007862E0,7.314858913E0,4.984249592E0
2.807961672E0,1.564906001E0,8.432307243E0,5.156532764E0
2.828805178E0,1.564906001E0,8.066205025E0,6.116054535E0
2.849648684E0,1.483550072E0,6.635297298E0,4.699503899E0
2.870522708E0,1.024128079E0,7.128218651E0,5.249852657E0
2.891366213E0,3.206382394E-1,7.980063438E0,4.443471432E0
2.912209719E0,1.249053478E0,8.800801277E0,6.965506554E0
2.933053225E0,3.278166950E-1,8.307880402E0,6.324230194E0
2.953927249E0,1.043270707E0,6.879364967E0,4.766502857E0
2.974770754E0,7.178468257E-2,7.537391186E0,5.163711071E0
2.995614260E0,2.392822653E-1,8.937192917E0,4.993820667E0
3.016457766E0,2.033899277E-1,9.092725754E0,6.613761902E0
3.037301272E0,8.039883971E-1,8.003992081E0,5.752345562E0
3.058175295E0,5.000999570E-1,7.202396393E0,4.800002098E0
3.079018801E0,1.531406492E-1,8.030312538E0,4.642076015E0
3.099862307E0,-8.662018180E-1,8.248059273E0,4.046263218E0
3.120705813E0,1.196411345E-2,8.805587769E0,4.180261135E0
3.141549319E0,-5.551348329E-1,8.535198212E0,6.683153629E0
3.162423342E0,2.129612118E-1,8.145168304E0,7.324429989E0
3.183266848E0,8.374879509E-2,7.274180889E0,5.570491314E0
3.204110354E0,-8.446664214E-1,8.013563156E0,5.218746185E0
3.224953860E0,9.044869542E-1,8.437092781E0,4.204189301E0
3.245797366E0,-4.067798555E-1,9.253045082E0,4.185046673E0
3.266671389E0,8.350951076E-1,9.056833267E0,4.677968502E0
3.287514895E0,-3.182454109E-1,8.815158844E0,6.118447304E0
3.308358401E0,1.459621787E-1,8.312665939E0,7.176074982E0
3.329201907E0,3.661018610E-1,7.233502865E0,6.305087566E0
3.350045413E0,-1.045663476E0,6.821937561E0,4.278367043E0
3.370919436E0,-7.657032609E-1,8.063812256E0,4.689932346E0
3.391762942E0,-1.560120344E0,8.958727837E0,5.407779217E0
3.412606448E0,3.637090325E-1,8.535198212E0,2.476571321E0
3.433449954E0,-2.416750938E-1,8.930013657E0,4.656432629E0
3.454323977E0,1.225125194E0,8.468199730E0,4.761716843E0
3.475167483E0,1.124626622E-1,7.927421570E0,5.209175110E0
3.496010989E0,1.249053478E0,7.099504948E0,7.250252724E0
3.516854495E0,1.076770201E-1,6.915257454E0,5.960521221E0
3.537698000E0,3.349951804E-1,6.451049805E0,5.309673309E0
3.558572024E0,3.326023519E-1,6.977470875E0,6.206982136E0
3.579415530E0,5.910272002E-1,7.154539585E0,5.032105923E0
3.600259036E0,3.349951804E-1,8.623732567E0,5.359922886E0
3.621102542E0,1.483550072E-1,8.020741463E0,4.634897232E0
3.641946047E0,8.733802438E-1,8.882157326E0,4.060619831E0
3.662820071E0,5.886343718E-1,9.300901413E0,5.182853699E0
3.683663577E0,1.261017561E0,8.970691681E0,4.800002098E0
3.704507083E0,9.068797827E-1,8.252845764E0,5.977271080E0
3.725350588E0,2.017149448E0,8.011170387E0,6.987041950E0
3.746224612E0,1.517049551E0,7.319644451E0,5.230710506E0
3.767068118E0,2.206182480E0,6.486942291E0,6.297909260E0
3.787911624E0,1.825723648E0,6.465406895E0,6.139982700E0
3.808755129E0,1.387837172E0,6.611369133E0,5.156532764E0
3.829598635E0,1.136590719E0,6.345765591E0,4.857429981E0
3.850442141E0,6.436693072E-1,6.532405853E0,4.249652863E0
3.871316165E0,9.978070259E-1,7.245467186E0,3.225524902E0
3.892159670E0,7.465606928E-1,7.740781307E0,4.668396950E0
3.913003176E0,1.445264935E0,8.025527000E0,3.586841106E0
3.933846682E0,1.885544300E0,8.238488197E0,6.116054535E0
3.954690188E0,1.758724689E0,7.972885132E0,5.855237007E0
3.975564211E0,1.878365755E0,7.377072334E0,4.969892502E0
3.996407717E0,1.945364833E0,8.341380119E0,8.133204460E0
4.017251223E0,1.663011789E0,6.855436802E0,5.419743061E0
4.038094729E0,2.062613010E0,6.549155712E0,5.206781864E0
4.058968752E0,1.885544300E0,7.142575741E0,5.596812248E0
4.079812258E0,1.651047587E0,7.362715244E0,4.206582069E0
4.100655764E0,1.004985496E-1,8.106883049E0,4.359723091E0
4.121499270E0,-3.421736360E-1,9.303294182E0,5.343173027E0
4.142342776E0,7.034898400E-1,8.353343964E0,3.811766386E0
4.163186282E0,1.457229018E0,8.987442017E0,4.977071285E0
4.184029788E0,1.440479279E0,8.920442581E0,6.317051888E0
4.204903811E0,1.792224169E0,8.523234367E0,5.577669621E0
4.225747317E0,1.911865234E0,7.487142086E0,7.022934437E0
4.246590823E0,1.612762451E0,6.501298904E0,6.522834301E0
4.267434329E0,9.810572863E-1,6.419943333E0,4.847858906E0
4.288277834E0,8.350951076E-1,6.439085960E0,4.852644444E0
4.309151858E0,2.249253243E-1,7.690532207E0,4.957928658E0
4.329995364E0,8.709874153E-1,8.597412109E0,3.168097258E0
4.350838870E0,5.192425251E-1,9.705288887E0,4.563112736E0
4.371712893E0,5.862415433E-1,9.552147865E0,6.034698486E0
4.392556399E0,4.450650215E-1,9.741181374E0,5.970092297E0
4.413399905E0,8.087740541E-1,7.290930748E0,5.749952793E0
4.434243411E0,9.547362328E-1,6.819544315E0,5.764309883E0
4.455086917E0,3.349951804E-1,6.795616150E0,4.230510235E0
4.475960940E0,-4.043870270E-1,7.893921852E0,3.046063185E0
4.496804446E0,-8.518448472E-1,8.310273170E0,3.668197155E0
4.517647952E0,8.925228715E-1,8.489734650E0,4.929214478E0
4.538521975E0,-1.411765367E-1,9.334401131E0,6.223731518E0
4.559365481E0,1.174875975E0,9.348757744E0,8.260024071E0
4.580208987E0,-2.153540403E-2,7.889136314E0,6.171089649E0
4.601052493E0,6.436693072E-1,6.321837425E0,4.541577339E0
4.621926516E0,3.062812984E-1,7.324429989E0,5.742774487E0
4.642770022E0,2.440679073E-1,8.070990562E0,5.127819061E0
4.663613528E0,7.561319470E-1,8.798408508E0,4.620540619E0
4.684487551E0,-3.158525825E-1,9.664610863E0,5.149354458E0
4.705331057E0,1.316052526E-1,9.303294182E0,5.544169903E0
4.726174563E0,-5.886343718E-1,8.817551613E0,6.053841114E0
4.747048586E0,1.280160069E0,8.073383331E0,7.824530125E0
4.767892092E0,8.901300430E-1,6.900900364E0,6.312266350E0
4.788735598E0,7.585247755E-1,6.046662807E0,4.357329845E0
4.809579104E0,5.503492057E-2,6.037091732E0,4.713860512E0
4.830422610E0,-2.560320199E-1,7.456035137E0,5.489135265E0
4.851296633E0,2.033899277E-1,8.930013657E0,3.314059258E0
4.872140139E0,7.034898400E-1,8.470592499E0,5.041677475E0
4.892983645E0,9.188438654E-1,9.700503349E0,8.157132149E0
4.913827151E0,1.363908887E0,8.740981102E0,6.948757172E0
4.934701174E0,1.244267821E0,7.925028801E0,6.764509678E0
4.955544680E0,1.387837172E0,6.807580471E0,5.967699528E0
4.976388186E0,9.786644578E-1,5.486742496E0,4.570291042E0
4.997231692E0,-4.115654826E-1,8.090133667E0,5.967699528E0
5.018075198E0,6.987041831E-1,7.960920811E0,4.417150497E0
5.038949221E0,5.599204898E-1,8.094919205E0,2.988635540E0
5.059792727E0,6.747759581E-1,8.812766075E0,3.115455151E0
5.080636233E0,-1.914258115E-2,9.463613510E0,4.687539577E0
5.101479739E0,1.629512191E0,9.085547447E0,6.769295216E0
5.122323245E0,6.053841114E-1,8.111668587E0,8.159524918E0
5.143197268E0,9.475577474E-1,8.408378601E0,7.329215527E0
5.164040774E0,4.259224236E-1,5.046463013E0,3.950550079E0
5.184884280E0,1.155733347E0,6.824330330E0,5.556134224E0
5.205727786E0,4.426721931E-1,7.312466145E0,5.458028316E0
5.226601809E0,4.857429862E-1,8.250452042E0,5.740381718E0
5.247445315E0,6.269195080E-1,9.224330902E0,5.034498692E0
5.268288821E0,8.518448472E-1,8.585447311E0,4.273581028E0
5.289132327E0,1.052842021E0,9.281759262E0,6.063412666E0
5.309975833E0,2.488535494E-1,9.542576790E0,7.475177765E0
5.330849856E0,7.082754970E-1,8.236095428E0,5.405386448E0
5.351693362E0,1.957328916E0,7.757531166E0,9.631111145E0
5.372536868E0,1.643869162E0,7.436892986E0,7.513463020E0
5.393380374E0,7.728816867E-1,7.037291527E0,5.998806477E0
5.414254397E0,1.165304661E0,7.441678524E0,6.123233318E0
5.435097903E0,-4.546362907E-2,7.355536938E0,5.300102234E0
5.455941409E0,-7.178468257E-2,7.601997375E0,3.732803345E0
5.476784915E0,-5.742774159E-2,8.171489716E0,4.378865242E0
5.497628420E0,2.440679073E-1,8.779266357E0,1.998006940E0
5.518502444E0,1.962114573E-1,8.530412674E0,3.479164124E0
5.539345950E0,7.274180651E-1,8.207381248E0,6.774080753E0
5.560189456E0,9.332008362E-1,7.874779224E0,5.618347645E0
5.581032961E0,8.159525394E-1,7.092326164E0,6.853044033E0
5.601876467E0,7.872386575E-1,7.259823799E0,7.487142086E0
5.622750491E0,1.677368641E0,6.424728870E0,4.570291042E0
5.643593997E0,-1.036092162E0,8.061419487E0,4.070191383E0
5.664437502E0,5.982056856E-1,8.054241180E0,3.821337700E0
5.685311526E0,-9.092726111E-1,8.568697929E0,4.615755081E0
5.706155032E0,1.136590719E0,1.013838959E1,4.666004181E0
5.726998538E0,-5.742774606E-1,1.025563812E1,4.017549038E0
5.747872561E0,1.194018483E0,9.126225471E0,6.017949104E0
5.768716067E0,1.471585870E0,8.712266922E0,8.348558426E0
5.789559573E0,1.344766378E0,8.075776100E0,6.896114826E0
5.810433596E0,1.529013634E0,6.814758778E0,3.613162279E0
5.831277102E0,-9.906286001E-1,6.728617191E0,3.756731510E0
5.852100792E0,1.069591761E0,6.932007313E0,4.639683247E0
5.872974815E0,-2.392822644E-3,8.386843681E0,3.247060299E0
5.893787804E0,9.714859724E-1,9.506684303E0,4.572684288E0
5.914631309E0,7.489534616E-1,8.391629219E0,6.149554253E0
5.935505333E0,6.747759581E-1,8.520841599E0,6.546762943E0
5.956348839E0,1.009771109E0,8.774480820E0,8.161917686E0
5.977192345E0,1.191625714E0,8.195417404E0,6.628118515E0
5.998035851E0,1.064806104E0,7.006184578E0,6.218945980E0
6.018909874E0,7.489534616E-1,7.042077065E0,7.858029366E0
6.039753380E0,1.598405480E0,7.762316704E0,3.641875982E0
6.060596886E0,-6.580262184E-1,7.606783390E0,4.283152521E-1
6.081470909E0,1.919043779E0,8.104490280E0,5.603990555E0
6.102314415E0,7.920243144E-1,9.717252731E0,7.649854183E0
6.123157921E0,1.217946768E0,9.087940216E0,6.147161484E0
6.144001427E0,1.660618901E0,7.482356548E0,7.463213921E0
6.164875450E0,1.117448211E0,6.821937561E0,7.140182972E0
6.185718956E0,3.493520916E-1,7.484749317E0,5.139782906E0
6.206562462E0,8.087740541E-1,7.125825882E0,1.533799291E0
6.227405968E0,2.632104978E-2,8.855836868E0,4.295116425E0
6.248279991E0,7.202396393E-1,9.183652878E0,6.673582554E0
6.269123497E0,6.867401004E-1,7.805387497E0,6.955935478E0
6.289967003E0,6.795616150E-1,7.972885132E0,5.582455158E0
6.310810509E0,7.274180651E-1,5.788238049E0,4.895715237E0
6.331654015E0,-3.924229145E-1,6.017949104E0,5.111069202E0
6.352528038E0,1.567298889E0,9.525827408E0,5.737988472E0
6.373371544E0,3.780659735E-1,1.036570740E1,4.941178799E0
6.394215050E0,1.689332843E0,8.930013657E0,7.525427341E0
6.415089073E0,6.891329288E-1,7.348358154E0,6.776473522E0
6.435932579E0,7.417750359E-1,6.407979012E0,3.550948858E0
6.456776085E0,2.703889608E-1,6.769295216E0,2.445464849E0
6.477650108E0,1.914258115E-2,9.334401131E0,4.654039860E0
6.498493614E0,6.652047038E-1,8.709874153E0,6.132804394E0
6.519337120E0,-6.556333899E-1,8.102097511E0,5.335994720E0
6.540180626E0,7.274180651E-1,6.032305717E0,3.395415306E0
6.561024132E0,2.871387079E-2,6.214160442E0,5.912664890E0
6.581898155E0,1.064806104E0,9.343972206E0,5.965306759E0
6.602741661E0,9.667003751E-1,8.468199730E0,3.541377544E0
6.623585167E0,5.024927258E-1,8.896514893E0,5.800201893E0
6.644459190E0,2.249253243E-1,7.159325123E0,5.254638672E0
6.665302696E0,-3.876372576E-1,6.364908218E0,6.948757172E0
6.686146202E0,6.891329288E-1,8.853444099E0,7.807780266E0
6.707020226E0,6.652047038E-1,8.611768723E0,4.022335052E0
6.727863731E0,-4.067798331E-2,1.003071213E1,4.625326157E0
6.748707237E0,1.069591761E0,8.082955360E0,6.695117950E0
6.769581261E0,2.871387303E-1,7.063612461E0,8.379665375E0
6.790424767E0,1.038485050E0,8.470592499E0,7.374679565E0
6.811298790E0,5.192425251E-1,7.750352383E0,3.349951744E0
6.832142296E0,3.278166950E-1,8.836693764E0,4.462614059E0
6.852985802E0,1.292124271E0,8.482556343E0,9.863214493E0
6.873829308E0,4.594219327E-1,8.597412109E0,8.973084450E0
6.894703331E0,1.062413216E0,7.613961697E0,3.096312523E0
6.915546837E0,-3.182454109E-1,7.841279984E0,2.483749866E0
6.936390343E0,-1.459621787E-1,8.322237015E0,3.919443607E0
6.957233849E0,1.603191197E-1,9.071190834E0,6.683153629E0
6.978107872E0,2.967100143E-1,9.470791817E0,5.005784988E0
6.998951378E0,1.083948612E0,6.853044033E0,3.692125320E0
7.019825401E0,7.800601721E-1,5.426921844E0,7.795815945E0
7.040668907E0,-9.332008660E-2,8.884550095E0,6.431907177E0
7.061512413E0,5.024927482E-2,7.977670670E0,3.541377485E-1
7.082355919E0,-7.178467698E-3,8.549555779E0,4.297509670E0
7.103199425E0,1.045663476E0,7.501499176E0,8.410771370E0
7.124073448E0,4.043870270E-1,6.759724140E0,5.893522263E0
7.144916954E0,6.388836503E-1,7.613961697E0,2.416750908E0
7.165760460E0,-2.297109663E-1,6.896114826E0,3.431307554E0
7.186634483E0,4.307080805E-1,8.886942863E0,7.975277901E0
7.207477989E0,2.105683982E-1,8.489734650E0,4.139583111E0
7.228321495E0,-4.929214716E-1,8.884550095E0,3.964907169E0
7.249165001E0,1.954936147E0,7.915457249E0,7.601997375E0
7.270008507E0,8.470591903E-1,6.446264267E0,5.895915031E0
7.290882530E0,1.610369682E0,6.575476646E0,4.821537495E0
7.311726036E0,5.647061467E-1,7.257431030E0,6.163911343E0
7.332569542E0,3.828516304E-1,9.442078590E0,6.223731518E0
7.353443565E0,3.996013701E-1,1.004028416E1,4.941178799E0
7.374287071E0,8.805587292E-1,8.872586250E0,7.164111137E0
7.395130577E0,1.584048629E0,7.874779224E0,8.824729919E0
7.416004601E0,7.704889178E-1,7.432106972E0,5.972485542E0
7.436848106E0,7.298108935E-1,7.908278942E0,4.275974274E0
7.457691612E0,4.546362907E-2,6.982256413E0,3.885943890E0
7.478535118E0,4.785645306E-1,8.394021988E0,5.297709465E0
7.499409142E0,3.756731451E-1,8.566305161E0,2.991028309E0
7.520252647E0,4.019941986E-1,8.769695282E0,4.192225456E0
7.541126671E0,1.174875975E0,8.121239662E0,7.204789162E0
7.561970177E0,1.950150490E0,7.420143127E0,7.200003147E0
7.582813683E0,1.115055323E0,6.745367050E0,3.744767427E0
7.603687706E0,1.198804140E0,5.685346603E0,3.455235958E0
7.624531212E0,2.129612118E-1,7.977670670E0,4.383651257E0
7.645374718E0,9.332008660E-2,8.470592499E0,3.414557934E0
7.666218224E0,1.679761529E0,9.413364410E0,5.357530117E0
7.687092247E0,9.547362328E-1,9.049654961E0,7.094718933E0
7.707935753E0,1.155733347E0,8.482556343E0,6.094519138E0
7.728779259E0,7.920243144E-1,7.881958008E0,5.948556900E0
7.749622765E0,1.205982566E0,6.642475605E0,6.130411625E0
7.770496788E0,8.159525394E-1,7.032505512E0,7.070790768E0
7.791340294E0,5.814558864E-1,7.917850018E0,4.144368649E0
7.812183800E0,2.703889608E-1,8.901300430E0,2.993421078E0
7.833027306E0,4.977070987E-1,8.578269005E0,3.957728624E0
7.853901329E0,1.746760458E-1,8.953942299E0,6.139982700E0
7.874744835E0,1.593619823E0,8.501698494E0,7.994420528E0
7.895588341E0,1.596012712E0,7.544569969E0,8.216953278E0
7.916431847E0,1.241874933E0,6.786045074E0,5.958128452E0
7.937275352E0,7.130611539E-1,7.223931789E0,3.613162279E0
7.958149376E0,2.727817893E-1,7.379465103E0,2.368894339E0
7.978992882E0,5.048855543E-1,7.446464062E0,2.167897224E0
7.999836388E0,5.455635786E-1,9.018548965E0,6.223731518E0
8.020679893E0,1.825723648E0,1.011924744E1,8.989834785E0
8.041553917E0,1.529013634E0,8.961120605E0,7.250252724E0
8.062397423E0,1.213161111E0,6.472585201E0,4.890929699E0
8.083240929E0,3.421736360E-1,6.781259537E0,4.493721008E0
8.104084434E0,-5.934200287E-1,7.367500782E0,3.622733593E0
8.124927940E0,1.105484009E0,7.874779224E0,4.615755081E0
8.145801964E0,3.206382394E-1,1.024606609E1,6.932007313E0
8.166645470E0,1.349551916E0,1.047817039E1,8.178668022E0
8.187519493E0,1.148554921E0,8.327022552E0,6.221338749E0
8.208362999E0,8.422735929E-1,5.938985825E0,4.950749874E0
8.229206505E0,8.398807645E-1,6.601797581E0,5.079962254E0
8.250080528E0,3.876372576E-1,6.625725746E0,4.039084435E0
8.270924034E0,1.170090318E0,7.970492363E0,3.433700562E0
8.291767540E0,5.000999570E-1,9.772287369E0,4.826323509E0
8.312611046E0,9.236295223E-1,9.152546883E0,6.470192432E0
8.333485069E0,2.703889608E-1,7.676175117E0,4.780859470E0
8.354328575E0,8.709874153E-1,5.237888813E0,2.971885681E0
8.375172081E0,8.685946465E-1,6.731009960E0,4.778466702E0
8.396046104E0,5.192425251E-1,6.094519138E0,3.074777126E0
8.416889610E0,1.127019525E0,7.128218651E0,9.738788009E-1
8.437733116E0,-1.411765367E-1,7.243073940E0,3.771088600E0
8.458607140E0,1.335195065E0,9.157332420E0,7.513463020E0
8.479450645E0,3.732803464E-1,9.449256897E0,6.872186661E0
8.500294151E0,1.009771109E0,7.357929707E0,3.806980848E0
8.521137657E0,1.105484009E0,6.281159401E0,5.778666496E0
8.542011681E0,-1.483550072E-1,3.888336897E0,3.730410576E0
8.562855186E0,1.844866276E0,5.862415314E0,4.622933388E0
8.583698692E0,3.948157430E-1,7.989634991E0,4.228117466E0
8.604542198E0,1.323230863E0,9.781859398E0,4.637290478E0
8.625416222E0,9.762716293E-1,9.564111710E0,6.147161484E0
8.646259727E0,1.184447169E0,6.616154671E0,7.154539585E0
8.667133751E0,1.150947690E0,7.331608772E0,7.616354465E0
8.687977257E0,9.140582681E-1,5.027320385E0,2.179861546E0
8.708820763E0,6.987041831E-1,7.429714203E0,5.218746185E0
8.729694786E0,-6.939185411E-2,6.802794933E0,4.541577339E0
8.750538292E0,8.279166222E-1,7.491927624E0,3.292523861E0
8.771381798E0,7.393822074E-1,8.958727837E0,4.754538536E0
8.792255821E0,9.547362328E-1,8.185846329E0,8.432307243E0
8.813099327E0,1.012163997E0,1.006899738E1,6.376872540E0
8.833942833E0,8.542376757E-1,5.998806477E0,4.955535889E0
8.854786339E0,1.335195065E0,6.929614544E0,6.597012043E0
8.875660362E0,7.585247755E-1,4.922036171E0,3.625126362E0
8.896503868E0,1.124626622E-1,7.865208149E0,5.998806477E0
8.917347374E0,4.259224236E-1,7.274180889E0,2.462214470E0
8.938190880E0,5.670989752E-1,8.281558990E0,2.538784742E0
8.959034386E0,1.426122308E0,7.853243828E0,4.476971149E0
8.979908409E0,1.196411371E0,8.508877754E0,6.391229153E0
9.000751915E0,1.282552958E0,9.090332985E0,6.008377552E0
9.021595421E0,1.473978758E0,7.578069210E0,7.743174076E0
9.042438927E0,1.560120344E0,7.302894592E0,9.214759827E0
9.063282433E0,1.162911773E0,5.422136307E0,5.618347645E0
9.084156456E0,7.465606928E-1,7.439285755E0,5.824130535E0
9.104999962E0,6.412764788E-1,5.797809124E0,4.319045067E0
9.125843468E0,-3.924229145E-1,8.408378601E0,4.790431023E0
9.146717491E0,7.920243144E-1,7.204789162E0,2.945564747E0
9.167560997E0,1.100698411E-1,8.171489716E0,4.867001057E0
9.188404503E0,1.426122308E0,8.700303078E0,5.290530682E0
9.209248009E0,-8.614161611E-2,8.743373871E0,4.869394302E0
9.230091515E0,1.533799291E0,8.121239662E0,5.601597786E0
9.250965538E0,8.231309652E-1,8.171489716E0,9.080761909E0
9.271809044E0,1.146162033E0,8.544769287E0,6.175875187E0
9.292652550E0,9.355936646E-1,5.687739372E0,3.830909014E0
9.313496056E0,1.064806104E0,6.087340832E0,7.317251682E0
9.334339561E0,1.390229940E0,5.393422127E0,5.613562107E0
9.355213585E0,8.781659007E-1,8.011170387E0,6.446264267E0
9.376057091E0,7.992027402E-1,6.204588890E0,5.429314613E0
9.396900597E0,2.943171859E-1,7.726424217E0,7.022934437E0
9.417744102E0,3.493520916E-1,8.618947029E0,6.137589931E0
9.438618126E0,8.446664214E-1,8.551948547E0,2.538784742E0
9.459461632E0,5.575276613E-1,7.556533813E0,5.111069202E0
9.480305138E0,2.134397745E0,8.551948547E0,9.710074425E0
9.501179161E0,1.277767301E0,6.857829571E0,7.180860519E0
9.522022667E0,1.261017561E0,8.635697365E0,5.826523304E0
9.542866173E0,1.069591761E0,7.491927624E0,6.546762943E0
9.563740196E0,8.949156404E-1,6.833901405E0,6.142375946E0
9.584583702E0,1.371087432E0,5.666203976E0,4.706682205E0
9.605427208E0,9.427721500E-1,6.441478729E0,4.539184570E0
9.626270714E0,1.237089276E0,6.276373863E0,7.300501823E0
9.647144737E0,5.264209956E-2,6.649653912E0,7.319644451E0
9.667988243E0,1.545763373E0,7.606783390E0,5.575276852E0
9.688831749E0,-5.120640397E-1,9.042476654E0,6.072983742E0
9.709705772E0,4.881358147E-1,7.487142086E0,4.572684288E0
9.730549278E0,-4.331009090E-1,7.946564198E0,4.347758770E0
9.751392784E0,1.258624673E0,8.056633949E0,4.969892502E0
9.772236290E0,1.081555843E0,8.336593628E0,6.077769279E0
9.793110313E0,1.567298889E0,8.128418922E0,7.441678524E0
9.813953819E0,5.503492355E-1,7.905886173E0,7.133004189E0
9.834797325E0,1.198804140E0,7.360322475E0,6.778866768E0
9.855640831E0,1.471585870E0,6.348158360E0,6.084948063E0
9.876514854E0,1.160519004E0,5.977271080E0,5.730810165E0
9.897358360E0,1.402194023E0,5.874379635E0,5.611168861E0
9.918201866E0,2.775674164E-1,5.484349728E0,6.245266914E0
9.939075890E0,1.036092162E0,5.804987907E0,5.666203976E0
9.959919395E0,3.110669367E-2,7.444071293E0,5.295316696E0
9.980762901E0,1.239482164E0,7.604390144E0,4.658825874E0
1.000163693E1,5.838487148E-1,7.649854183E0,4.436293125E0
1.002248043E1,8.566305041E-1,7.712067604E0,4.955535889E0
1.004332394E1,1.141376376E0,8.169096947E0,7.176074982E0
1.006416744E1,1.100698471E0,8.051848412E0,7.867600918E0
1.008504147E1,1.421336651E0,7.814958572E0,8.130811691E0
1.010588497E1,1.189232826E0,7.377072334E0,7.501499176E0
1.012672848E1,1.351944804E0,6.989434719E0,6.829115868E0
1.014757198E1,1.643869162E0,6.051448345E0,7.085147858E0
1.016841549E1,1.722832322E0,5.924628735E0,6.680760860E0
1.018925900E1,7.657032609E-1,6.757331371E0,5.343173027E0
1.021013302E1,7.034898400E-1,7.188039303E0,4.249652863E0
1.023097652E1,6.747759581E-1,6.733402729E0,5.161318302E0
1.025182003E1,1.129412293E0,7.874779224E0,5.367101192E0
1.027269405E1,1.567298889E0,8.262416840E0,5.527420521E0
1.029353756E1,9.954141974E-1,8.224131584E0,5.994020939E0
1.031438107E1,8.997012973E-1,7.716853142E0,5.065605640E0
1.033522457E1,9.595218897E-1,7.920242786E0,6.276373863E0
1.035609860E1,1.617548108E0,8.465806961E0,7.496713161E0
1.037694210E1,1.526620865E0,8.666803360E0,7.539783955E0
1.039778561E1,7.992027402E-1,6.912864685E0,6.857829571E0
1.041862911E1,1.655833244E0,7.003791809E0,8.585447311E0
1.043947262E1,1.249053478E0,6.697510719E0,7.731209755E0
1.046031612E1,1.725225091E0,6.283552170E0,5.364708424E0
1.048115963E1,4.642075896E-1,6.233303070E0,4.991427898E0
1.050200314E1,7.633104324E-1,5.434100151E0,4.271188259E0
1.052284664E1,7.752745152E-1,6.163911343E0,4.694717884E0
1.054372066E1,8.709874153E-1,7.676175117E0,5.000999451E0
1.056456417E1,1.646261930E0,8.037490845E0,6.513263226E0
1.058540768E1,1.387837172E0,8.070990562E0,6.843472958E0
1.060625118E1,1.103091240E0,8.583054543E0,5.108676434E0
1.062712521E1,2.105683982E-1,8.511270523E0,3.811766386E0
1.064796871E1,1.395015597E0,7.159325123E0,6.845865726E0
1.066881222E1,1.452443361E0,8.475378036E0,1.011924744E1
1.068965572E1,1.519442320E0,7.448856831E0,9.332008362E0
1.071052975E1,7.393822074E-1,8.059026718E0,8.312665939E0
1.073137325E1,9.619147182E-1,5.788238049E0,7.008577347E0
1.075221676E1,1.588834286E0,5.599205017E0,7.374679565E0
1.077309078E1,2.632105052E-1,7.066005230E0,3.876372576E0
1.079393429E1,1.406979680E0,6.824330330E0,4.962714195E0
1.081477779E1,5.718846321E-1,6.137589931E0,7.044469833E0
1.083562130E1,5.886343718E-1,6.235695839E0,4.759324074E0
1.085649532E1,-3.349951655E-2,7.611568928E0,4.596612453E0
1.087733883E1,8.590233326E-1,7.932207108E0,4.563112736E0
1.089818234E1,7.465606928E-1,8.645268440E0,5.089533806E0
1.091905636E1,8.829515576E-1,8.059026718E0,3.491128206E0
1.093989986E1,1.194018483E0,7.769495010E0,5.570491314E0
1.096077389E1,1.942971945E0,7.456035137E0,9.580862045E0
1.098161739E1,4.618147612E-1,9.109476089E0,6.762116909E0
1.100246090E1,6.771687865E-1,6.271588326E0,6.843472958E0
1.102330441E1,1.619940877E0,6.951149940E0,9.662218094E0
1.104414791E1,1.509871125E0,5.017749310E0,8.111668587E0
1.106502193E1,1.392622828E0,6.970292568E0,5.606383324E0
1.108586544E1,2.304288149E0,6.029912949E0,6.307480335E0
1.110670895E1,1.569691658E0,5.793023586E0,7.068397999E0
1.112755245E1,9.786644578E-1,5.788238049E0,6.975078106E0
1.114839596E1,4.785645381E-2,7.506284714E0,4.768895626E0
1.116926998E1,8.350951076E-1,7.884350777E0,4.735395908E0
1.119011349E1,1.217946768E0,7.757531166E0,7.374679565E0
1.121095699E1,7.872386575E-1,7.568498135E0,6.592226505E0
1.123180050E1,1.141376376E0,7.250252724E0,6.381658077E0
1.125267452E1,2.254039049E0,9.300901413E0,7.479963779E0
1.127351803E1,1.225125194E0,8.051848412E0,1.011924744E1
1.129439205E1,1.710868239E0,7.144968510E0,7.214360237E0
1.131523556E1,1.189232826E0,6.338587284E0,6.525227547E0
1.133607906E1,1.837687731E0,6.805187702E0,8.092526436E0
1.135695309E1,1.976471543E0,5.455635548E0,6.171089649E0
1.137779659E1,-1.196411345E-2,5.596812248E0,5.687739372E0
1.139864010E1,6.795616150E-1,7.192824841E0,5.635097504E0
1.141951412E1,6.436693072E-1,8.006384850E0,5.355136871E0
1.144035763E1,1.076770186E0,7.654639721E0,5.429314613E0
1.146120113E1,8.231309652E-1,8.355736732E0,4.436293125E0
1.148207516E1,1.208375454E0,9.226723671E0,4.917250633E0
1.150291866E1,1.071984529E0,6.336194515E0,7.704888821E0
1.152376217E1,1.277767301E0,5.371886730E0,1.055234814E1
1.154463619E1,1.339980721E0,5.446064472E0,6.448657036E0
1.156547970E1,1.552941918E0,6.754938126E0,5.793023586E0
1.158635372E1,1.722832322E0,6.046662807E0,7.872386456E0
1.160719723E1,1.572084427E0,6.592226505E0,7.800601959E0
1.162804073E1,1.021735311E0,9.365508080E0,4.654039860E0
1.164891476E1,1.117448211E0,7.628318787E0,5.077569485E0
1.166975826E1,1.808973908E0,7.058826923E0,1.069352436E1
1.169060177E1,2.629712105E0,6.431907177E0,1.151904774E1
1.171147579E1,1.954936147E0,6.436692715E0,7.334001541E0
1.173231930E1,7.034898400E-1,4.354937077E0,4.742574692E0
1.175316280E1,1.263410330E0,5.603990555E0,7.257431030E0
1.177400631E1,1.971685886E0,5.991627693E0,6.252445698E0
1.179488033E1,9.738788009E-1,8.597412109E0,4.821537495E0
1.181572384E1,1.253839016E0,7.843672752E0,5.022534847E0
1.183656734E1,1.165304661E0,7.432106972E0,9.516255379E0
1.185741085E1,2.203789711E0,6.154339790E0,9.169296265E0
1.187828487E1,7.298108935E-1,4.895715237E0,6.235695839E0
1.189912838E1,5.335994363E-1,5.931807518E0,4.721039295E0
1.191997189E1,1.478764415E0,6.398407936E0,5.826523304E0
1.194084591E1,2.191825628E0,7.532605648E0,6.250052929E0
1.196168942E1,1.596012712E0,8.087740898E0,6.037091732E0
1.198253292E1,1.866401672E0,8.408378601E0,7.003791809E0
1.200340694E1,1.093519926E0,6.900900364E0,7.130611420E0
1.202425045E1,2.352144718E0,5.532206059E0,6.199803352E0
1.204509396E1,-1.818545163E-1,5.455635548E0,5.381458282E0
1.206596798E1,2.304288149E0,6.924828529E0,7.616354465E0
1.208681148E1,1.263410330E0,7.056434155E0,7.616354465E0
1.210765499E1,1.019342422E0,8.451449394E0,7.836493969E0
1.212852902E1,8.542376757E-1,5.647061348E0,6.553941250E0
1.214937252E1,1.043270707E0,6.376872540E0,8.061419487E0
1.217021603E1,2.715853691E0,6.714260101E0,6.888936520E0
1.219109005E1,1.636690736E0,6.008377552E0,6.329015732E0
1.221193356E1,1.282552958E0,8.245666504E0,8.214560509E0
1.223277706E1,6.699903607E-1,7.405786037E0,8.157132149E0
1.225365109E1,1.954936147E0,6.099305153E0,7.018148899E0
1.227446407E1,1.531406522E0,4.496113777E0,6.876972198E0
1.229533810E1,1.311266780E0,7.022934437E0,6.242874146E0
1.231618160E1,1.555334687E0,7.731209755E0,7.006184578E0
1.233702511E1,1.313659668E0,8.264809608E0,8.793622971E0
1.235789913E1,1.253839016E0,6.168696880E0,6.671189308E0
1.237874264E1,7.058826685E-1,5.230710506E0,6.556334019E0
1.239961666E1,1.483550072E0,7.580461979E0,5.460421085E0
1.242046017E1,1.543370605E0,8.520841599E0,8.432307243E0
1.244130367E1,1.962114573E0,7.853243828E0,8.147561073E0
1.246217770E1,8.614161611E-1,5.838487148E0,5.967699528E0
1.248302120E1,9.930213690E-1,6.247660160E0,4.594219685E0
1.250389523E1,1.205982566E0,6.781259537E0,6.678368092E0
1.252473873E1,1.773081541E0,7.941778183E0,9.449256897E0
1.254561276E1,1.792224169E0,5.410171986E0,6.697510719E0
1.256645626E1,1.258624673E0,5.386243820E0,5.907878876E0
1.258729977E1,1.514656782E0,6.723831654E0,6.049055576E0
1.260814327E1,1.749153376E0,7.838887215E0,8.889336586E0
1.262901730E1,2.057827473E0,6.063412666E0,7.111468792E0
1.264986080E1,1.603191137E0,6.104090691E0,7.144968510E0
1.267073482E1,1.189232826E0,7.312466145E0,6.790830612E0
1.269157833E1,1.246660590E0,7.417750359E0,7.688138962E0
1.271242184E1,1.756331801E0,5.527420521E0,6.269195557E0
1.273329586E1,1.598405480E0,5.962913990E0,7.345965385E0
1.275413937E1,1.741974831E0,8.262416840E0,8.193024635E0
1.277498287E1,1.067198873E0,7.087540627E0,5.630311489E0
1.279582638E1,1.969292998E0,5.565705299E0,7.063612461E0
1.281670040E1,1.584048629E0,6.951149940E0,7.003791809E0
1.283754391E1,1.347159147E0,8.276773453E0,8.506484032E0
1.285838741E1,1.074377418E0,5.891129494E0,5.273781300E0
1.287926144E1,1.993221283E0,5.907878876E0,6.400800705E0
1.290010494E1,1.837687731E0,7.666603565E0,8.444271088E0
1.292094845E1,1.698904037E0,6.472585201E0,6.637690067E0
1.294179195E1,1.368694544E0,5.905486107E0,7.240681171E0
1.296266598E1,1.249053478E0,7.460821152E0,6.594619274E0
1.298350948E1,1.684547186E0,7.274180889E0,6.857829571E0
1.300435299E1,1.856830359E0,5.469992638E0,6.355337143E0
1.302522701E1,1.607976794E0,7.063612461E0,7.250252724E0
1.304607052E1,1.892722726E0,7.156932354E0,8.848658562E0
1.306691402E1,1.270588875E0,6.041877270E0,6.685546398E0
1.308778805E1,1.533799291E0,6.879364967E0,5.632704735E0
1.310863155E1,1.564906001E0,7.779066563E0,8.733802795E0
1.312950558E1,1.263410330E0,5.008177757E0,6.740581512E0
1.315034908E1,1.751546144E0,7.338787079E0,6.285944939E0
1.317119259E1,1.093519926E0,8.049455643E0,7.417750359E0
1.319203610E1,1.844866276E0,5.225924492E0,7.171289444E0
1.321291012E1,1.596012712E0,6.482156754E0,6.379265308E0
1.323375362E1,1.150947690E0,8.248059273E0,8.482556343E0
1.325459713E1,1.648654819E0,5.527420521E0,5.962913990E0
1.327544064E1,1.368694544E0,5.527420521E0,6.393621922E0
1.329628414E1,2.132004976E0,7.786244869E0,9.193224907E0
1.331715816E1,1.916650891E0,5.501099110E0,5.946164131E0
1.333800167E1,1.342373490E0,6.362515450E0,5.867201328E0
1.335884518E1,1.471585870E0,7.707281590E0,7.846065521E0
1.337968868E1,1.428515077E0,5.400600910E0,5.769095421E0
1.340056271E1,1.914258122E0,5.893522263E0,5.919843197E0
1.342140621E1,1.517049551E0,8.303094864E0,8.250452042E0
1.344228024E1,1.081555843E0,5.400600910E0,5.343173027E0
1.346312374E1,1.880758643E0,4.955535889E0,4.943571568E0
1.348396725E1,8.111668825E-1,7.537391186E0,8.231309891E0
1.350484127E1,2.373680115E0,5.280959606E0,8.827122688E0
1.352568478E1,2.067398787E0,6.398407936E0,8.240880966E0
1.354655880E1,1.263410330E0,8.255238533E0,7.097112179E0
1.356740231E1,1.251446247E0,5.828916073E0,5.108676434E0
1.358824581E1,1.679761529E0,5.166104317E0,6.668796539E0
1.360908932E1,2.048256159E0,8.188239098E0,9.131011009E0
1.362993282E1,2.230110645E0,5.651846886E0,6.319444656E0
1.365080685E1,1.617548108E0,5.910272121E0,5.548955917E0
1.367165035E1,9.092726111E-1,7.379465103E0,7.161718369E0
1.369249386E1,1.316052437E0,5.362315655E0,5.503491879E0
1.371333736E1,9.786644578E-1,5.982056618E0,6.589833736E0
1.373421139E1,1.763510346E0,7.819744587E0,8.824729919E0
1.375505489E1,1.689332843E0,5.812166214E0,6.927221775E0
1.377589840E1,1.299302697E0,5.096712112E0,5.316852093E0
1.379674191E1,1.454836130E0,7.125825882E0,7.685746193E0
1.381761593E1,1.624726534E0,6.046662807E0,7.970492363E0
1.383845943E1,1.347159147E0,5.984449387E0,5.938985825E0
1.385930294E1,1.584048629E0,8.506484032E0,4.881358147E0
1.388014645E1,2.352144718E0,6.407979012E0,8.764909744E0
1.390098995E1,1.658226132E0,5.991627693E0,9.999606133E0
1.392183346E1,1.258624673E0,8.262416840E0,5.201996326E0
1.394270748E1,1.651047617E-1,7.467999458E0,5.204389095E0
1.396355099E1,1.234696507E0,4.663611412E0,7.152146816E0
1.398439449E1,9.643075466E-1,6.601797581E0,5.910272121E0
1.400523800E1,1.744367719E0,7.539783955E0,7.747959614E0
1.402608150E1,1.658226132E0,5.977271080E0,6.764509678E0
1.404692501E1,7.968099117E-1,5.151747227E0,5.266602516E0
1.406779903E1,1.320838094E0,7.573283672E0,7.412964344E0
1.408864254E1,1.313659668E0,6.731009960E0,7.183253765E0
1.410948605E1,2.007578135E0,6.400800705E0,8.743373871E0
1.413036007E1,1.330409408E0,7.932207108E0,6.853044033E0
1.415120358E1,1.395015597E0,6.575476646E0,6.501298904E0
1.417204708E1,1.014556766E0,5.510670662E0,5.876772404E0
1.419289059E1,1.636690736E0,6.221338749E0,5.800201893E0
1.421376461E1,1.529013634E0,8.300702095E0,9.678967476E0
1.423460812E1,1.261017561E0,5.812166214E0,6.489335060E0
1.425545162E1,1.234696507E0,6.168696880E0,5.809773445E0
1.427629513E1,2.273181438E0,8.729017258E0,8.207381248E0
1.429716915E1,2.019542217E0,6.896114826E0,8.338987350E0
1.431801266E1,1.155733347E0,5.970092297E0,5.644668579E0
1.433888668E1,4.354937077E-1,6.465406895E0,4.220939159E0
1.435973019E1,1.091127157E0,7.645068169E0,7.853243828E0
1.438057369E1,1.220339537E0,5.331208706E0,5.620740414E0
1.440144772E1,1.459621787E0,6.838686943E0,7.322037220E0
1.442229122E1,2.383251429E0,7.597211838E0,9.882357597E0
1.444313473E1,2.880958557E0,6.714260101E0,9.449256897E0
1.446397823E1,1.246660590E0,5.871986866E0,5.273781300E0
1.448482174E1,1.048056364E0,8.300702095E0,3.991228104E0
1.450566525E1,1.203589797E0,5.726024628E0,6.553941250E0
1.452653927E1,2.478964329E0,6.262016773E0,9.190832138E0
1.454738277E1,1.938186288E0,8.633303642E0,7.702496052E0
1.456822628E1,1.423729420E0,7.075576782E0,4.847858906E0
1.458910030E1,1.222732425E0,6.242874146E0,5.536991596E0
1.460994381E1,1.418943882E0,7.154539585E0,6.975078106E0
1.463078732E1,2.172683001E0,5.850451469E0,6.513263226E0
1.465166134E1,2.043470621E0,6.939185619E0,5.924628735E0
1.467250484E1,1.162911773E0,6.262016773E0,6.805187702E0
1.469334835E1,2.201396942E0,6.522834301E0,7.032505512E0
1.471419186E1,2.041077614E0,6.120840549E0,8.252845764E0
1.473506588E1,2.579462767E0,7.180860519E0,9.030512810E0
1.475590939E1,1.686939955E0,5.412564754E0,8.042277336E0
1.477675289E1,2.560320139E0,5.857629776E0,1.066959572E1
1.479762692E1,2.545963287E0,7.558926582E0,1.056909752E1
1.481847042E1,2.890529871E0,7.350750923E0,7.238288403E0
1.483934444E1,2.787638426E0,6.532405853E0,7.977670670E0
1.486018795E1,2.390429735E0,7.116254330E0,9.116654396E0
1.488103146E1,2.110469580E0,6.388836384E0,6.975078106E0
1.490187496E1,1.634297848E0,8.066205025E0,6.506084919E0
1.492274898E1,1.540977836E0,5.759523869E0,5.070391178E0
1.494359249E1,1.646261930E0,7.613961697E0,7.278966427E0
1.496443600E1,6.460621357E-1,6.759724140E0,4.407579422E0
1.498531002E1,6.699903607E-1,7.293323517E0,3.562912941E0
1.500615353E1,4.737788737E-1,6.836294174E0,2.627319336E0
1.502699703E1,-1.124626622E-1,7.159325123E0,2.632104874E0
1.504784054E1,3.900300860E-1,7.255038261E0,1.741974831E0
1.506868404E1,3.062812984E-1,6.388836384E0,1.299302697E0
1.508955807E1,1.036092162E0,7.546962738E0,4.347758770E0
1.511040157E1,4.307080805E-2,6.817151546E0,3.117847919E0
1.513127560E1,4.522434771E-1,7.992027760E0,3.299702406E0
1.515211910E1,2.105683982E-1,7.343572617E0,4.409972191E0
1.517296261E1,6.245267391E-1,7.795815945E0,4.570291042E0
1.519383663E1,-1.651047617E-1,8.348558426E0,4.034298897E0
1.521468014E1,2.297109663E-1,8.269595146E0,3.091526747E0
1.523552364E1,-5.742774159E-2,7.389036179E0,4.771288395E0
1.525636715E1,1.770688742E-1,9.001798630E0,4.749752998E0
1.527721066E1,9.164510965E-1,8.910871506E0,4.235296249E0
1.529808468E1,5.982056856E-1,7.862815380E0,5.687739372E0
1.531892818E1,2.225325108E-1,7.826922894E0,6.104090691E0
1.533977169E1,2.608176768E-1,8.276773453E0,5.749952793E0
1.536061520E1,1.715653777E0,7.915457249E0,6.173482418E0
1.538148922E1,1.550549030E0,6.726224422E0,6.929614544E0
1.540233273E1,1.775474429E0,8.023134232E0,9.801001549E0
1.542317623E1,2.409572363E0,5.144568920E0,9.815358162E0
1.544401974E1,2.557927370E0,8.482556343E0,1.071027374E1
1.546489376E1,2.407179594E0,7.343572617E0,9.164510727E0
1.548573727E1,2.160718918E0,4.740181446E0,7.427321434E0
1.550658077E1,1.694118381E0,8.214560509E0,7.539783955E0
1.552742428E1,1.797009826E0,7.487142086E0,9.336793900E0
1.554826778E1,1.947757602E0,6.139982700E0,9.614361763E0
1.556911129E1,1.493121386E0,5.905486107E0,7.915457249E0
1.558998531E1,2.871387303E-1,6.027520180E0,6.271588326E0
1.561082882E1,1.098305583E0,6.429514408E0,5.347958565E0
1.563167232E1,1.387837172E0,6.262016773E0,5.905486107E0
1.565251583E1,2.043470621E0,5.924628735E0,4.295116425E0
1.567338985E1,2.026720762E0,6.680760860E0,4.919643402E0
1.569423336E1,1.641476393E0,6.673582554E0,6.807580471E0
1.571507687E1,2.512463808E0,6.659225464E0,6.448657036E0
1.573595089E1,1.674975872E0,6.192625046E0,6.934400082E0
1.575679440E1,2.892922640E0,6.484549522E0,5.757131100E0
1.577766842E1,2.368894339E0,6.762116909E0,6.642475605E0
1.579851193E1,3.304488182E0,6.704689026E0,5.864808083E0
1.581938595E1,2.651247501E0,7.556533813E0,5.706882000E0
1.584022945E1,2.435893536E0,7.032505512E0,4.893322468E0
1.586110701E1,2.129612207E0,6.941578388E0,3.878765583E0
1.588195051E1,8.279166222E-1,7.080362320E0,3.369094372E0
1.590279402E1,3.876372576E-1,6.647261143E0,1.990828395E0
1.592363753E1,-5.431707501E-1,8.475378036E0,1.658226132E0
1.594451155E1,6.699903309E-2,7.853243828E0,-2.512463629E-1
1.596535506E1,1.914258115E-2,8.650053978E0,3.967299938E0
1.598622908E1,1.253839016E0,7.767102242E0,5.123033047E0
1.600710310E1,1.100698411E-1,8.910871506E0,2.785245657E0
1.602794661E1,-5.192425251E-1,7.295716286E0,1.356730461E0
1.604879011E1,4.091726840E-1,8.128418922E0,1.686939955E0
1.606963362E1,-9.690931439E-1,9.150154114E0,1.483550072E-1
1.609050764E1,1.737189293E0,9.576076508E0,-4.713860750E-1
1.611135115E1,2.849851847E0,8.049455643E0,4.017549038E0
1.613219466E1,1.150947690E0,1.070788097E1,4.977071285E0
1.615303816E1,1.277767301E0,7.178467751E0,5.948556900E0
1.617391218E1,8.327022791E-1,8.343772888E0,1.099501991E1
1.619475569E1,2.507678032E0,9.688538551E0,1.414158154E1
1.621559920E1,2.634497643E0,9.186046600E0,1.043270683E1
1.623647322E1,1.859223247E0,9.657432556E0,9.588040352E0
1.625731673E1,1.773081541E0,8.944371223E0,6.723831654E0
1.627816023E1,9.475577474E-1,9.131011009E0,5.776273727E0
1.629900374E1,1.201196909E0,9.159725189E0,4.153940201E0
1.631987776E1,1.488335729E0,6.460621357E0,5.690132141E0
1.634072127E1,1.282552958E0,8.408378601E0,8.420342445E0
1.636156477E1,2.392822644E-3,7.362715244E0,3.828516245E0
1.638240828E1,3.349951804E-1,8.154739380E0,7.032505512E0
1.640328230E1,1.507478237E0,6.518048763E0,8.535198212E0
1.642412581E1,1.552941918E0,6.556334019E0,9.535398483E0
1.644496931E1,2.469393015E0,6.195017815E0,8.094919205E0
1.646581282E1,1.361516118E0,6.013163090E0,7.743174076E0
1.648668684E1,7.417750359E-1,5.709274769E0,4.737788677E0
1.650753035E1,5.886343718E-1,6.223731518E0,2.792423964E0
1.652837385E1,1.265803218E0,5.960521221E0,2.069791555E0
1.654921736E1,1.880758643E0,5.192425251E0,3.797409534E0
1.657006087E1,1.761117458E0,5.235496044E0,4.208974838E0
1.659090437E1,1.607976794E0,4.914857864E0,2.847458839E0
1.661174788E1,4.139583111E-1,6.228517532E0,3.012563705E0
1.663259138E1,-1.411765367E-1,6.647261143E0,-8.518448472E-1
1.665346541E1,-5.048855543E-1,8.609375954E0,-1.986042857E-1
1.667430891E1,2.371287346E0,8.544769287E0,1.957328916E0
1.669515242E1,9.332008362E-1,8.549555779E0,3.749552965E0
1.671599592E1,1.115055323E0,9.425328255E0,9.116654396E-1
1.673686995E1,2.017149448E0,1.020778179E1,3.249453068E0
1.675771345E1,7.178468108E-1,1.254078388E1,3.936193228E0
1.677855696E1,2.371287346E0,1.208614731E1,3.058027267E0
1.679943098E1,1.129412293E0,1.090648556E1,5.883950710E0
1.682027449E1,2.603390932E0,1.062413216E1,8.647661209E0
1.684111800E1,1.966900229E0,1.108594704E1,8.116454124E0
1.686199202E1,1.648654819E0,9.229117393E0,6.381658077E0
1.688283552E1,2.538784742E0,8.075776100E0,8.647661209E0
1.690367903E1,1.730010748E0,7.843672752E0,8.164310455E0
1.692452254E1,1.864008784E0,8.044670105E0,6.463014126E0
1.694539656E1,9.260223508E-1,7.460821152E0,4.922036171E0
1.696624006E1,1.584048629E0,6.965506554E0,2.986242771E0
1.698708357E1,5.096712112E-1,5.668596745E0,3.237488985E0
1.700795759E1,1.201196909E0,6.439085960E0,2.744567633E0
1.702880110E1,-4.115654826E-1,6.742974281E0,1.993221283E0
1.704964461E1,1.241874933E0,6.592226505E0,1.998006940E0
1.707051863E1,1.380658627E0,7.379465103E0,2.730210543E0
1.709136214E1,1.789831281E0,7.791030407E0,4.376472473E0
1.711223616E1,1.682154298E0,7.733603001E0,7.058826923E0
1.713307966E1,2.409572363E0,7.965706348E0,6.776473522E0
1.715392317E1,1.610369682E0,6.384050846E0,3.218346357E0
1.717476668E1,1.048056364E0,7.034898758E0,4.115654945E0
1.719561018E1,1.024128079E0,8.628518105E0,4.981856823E0
1.721645369E1,1.091127157E0,9.243474007E0,3.474378586E0
1.723729719E1,1.703689694E0,9.075976372E0,4.321437836E0
1.725814070E1,1.179661512E0,6.896114826E0,4.321437836E0
1.727898421E1,2.227717876E0,7.889136314E0,5.577669621E0
1.729985823E1,1.351944804E0,8.999405861E0,5.216353416E0
1.732070174E1,1.758724689E0,8.831908226E0,2.914458036E0
1.734157576E1,1.342373490E0,9.690931320E0,6.082555294E0
1.736241926E1,2.201396942E0,7.176074982E0,5.769095421E0
1.738326277E1,1.648654819E0,7.183253765E0,4.859822750E0
1.740410628E1,-2.871387303E-1,8.843872070E0,4.809573650E0
1.742498030E1,2.021935225E0,9.671789169E0,8.176275253E0
1.744582380E1,8.303094506E-1,7.546962738E0,6.879364967E0
1.746666731E1,2.622533560E0,7.881958008E0,5.455635548E0
1.748751082E1,9.882357717E-1,8.504091263E0,2.299502611E0
1.750835432E1,6.867401004E-1,9.671789169E0,6.439085960E0
1.752922835E1,1.871187329E0,7.300501823E0,5.008177757E0
1.755007185E1,2.153540403E-2,7.558926582E0,4.721039295E0
1.757091536E1,8.757730722E-1,7.424928665E0,3.457628727E0
1.759175886E1,-2.991028428E-1,9.229117393E0,4.881358147E0
1.761263289E1,9.571290612E-1,8.944371223E0,4.711467743E0
1.763347639E1,1.337587833E0,5.730810165E0,4.618147850E0
1.765431990E1,4.354937077E-1,6.348158360E0,6.314659119E0
1.767516341E1,3.158525825E-1,8.551948547E0,4.979464054E0
1.769603743E1,-7.896314561E-2,9.992427826E0,3.952943087E0
1.771688093E1,-4.546363056E-1,9.324830055E0,5.632704735E0
1.773772444E1,1.596012712E0,7.010970116E0,5.127819061E0
1.775859846E1,1.026520967E0,7.022934437E0,6.635297298E0
1.777944197E1,8.853443861E-1,7.420143127E0,3.730410576E0
1.780028548E1,8.039883971E-1,8.405985832E0,2.677568436E0
1.782115950E1,-1.986042857E-1,8.774480820E0,5.642275810E0
1.784200301E1,7.537391186E-1,8.382058144E0,9.238688469E0
1.786284651E1,9.427721500E-1,7.489534855E0,7.965706348E0
1.788372053E1,6.987041831E-1,6.235695839E0,4.517649174E0
1.790456404E1,1.986042857E-1,7.700103283E0,4.771288395E0
1.792543806E1,-5.982056856E-1,8.829515457E0,4.692325115E0
1.794628157E1,3.684946895E-1,9.939785004E0,5.333601475E0
1.796712508E1,-2.033899277E-1,1.000917721E1,5.692524910E0
1.798796858E1,7.226324677E-1,9.109476089E0,8.709874153E0
1.800884260E1,7.441678643E-1,7.585247993E0,7.793423176E0
1.802968611E1,2.153540403E-2,6.848258495E0,4.922036171E0
1.805052962E1,1.746760458E-1,7.142575741E0,6.190232277E0
1.807137312E1,-2.943171859E-1,7.858029366E0,4.261617184E0
1.809224714E1,-7.585247755E-1,8.884550095E0,3.699303865E0
1.811309065E1,5.168496966E-1,9.726823807E0,4.811966419E0
1.813396467E1,-2.775674164E-1,1.010249710E1,5.376672268E0
1.815480818E1,5.599204898E-1,9.896714211E0,5.697310925E0
1.817568220E1,5.862415433E-1,8.047062874E0,8.382058144E0
1.819652571E1,1.052841991E-1,8.776873589E0,7.477570534E0
1.821736922E1,4.019941986E-1,5.515456200E0,3.488735437E0
1.823824324E1,-9.092726111E-1,7.532605648E0,5.766702652E0
1.825908674E1,1.615155339E0,6.429514408E0,4.814359188E0
1.827993025E1,-8.374879360E-1,7.869993687E0,4.496113777E0
1.830077376E1,-2.943171859E-1,7.566105366E0,3.256631613E0
1.832164778E1,-6.436693072E-1,8.027919769E0,4.376472473E0
1.834249129E1,-8.374879509E-2,8.659625053E0,4.163511276E0
1.836333479E1,-5.718846321E-1,9.262616158E0,3.376272678E0
1.838417830E1,7.537391186E-1,9.470791817E0,4.929214478E0
1.840505232E1,4.570291340E-1,8.482556343E0,5.290530682E0
1.842589583E1,7.393822074E-1,9.454042435E0,4.654039860E0
1.844673933E1,6.652047038E-1,8.315058708E0,5.087141037E0
1.846758284E1,1.363908947E-1,9.353543282E0,6.565905571E0
1.848845686E1,1.332802176E0,8.269595146E0,5.649454117E0
1.850930037E1,-1.938186288E-1,9.573683739E0,6.221338749E0
1.853014387E1,1.682154298E0,7.489534855E0,6.936792850E0
1.855101790E1,2.033899277E-1,8.262416840E0,7.192824841E0
1.857186140E1,1.371087432E0,7.702496052E0,5.934200287E0
1.859273543E1,2.392822644E-3,9.236295700E0,5.790630817E0
1.861357893E1,5.024927258E-1,7.908278942E0,6.013163090E0
1.863442244E1,-1.986042857E-1,8.836693764E0,5.295316696E0
1.865529646E1,6.221339107E-1,8.444271088E0,6.786045074E0
1.867613997E1,5.096712112E-1,9.238688469E0,7.125825882E0
1.869698347E1,1.605584025E0,7.621140003E0,6.396014690E0
1.871785750E1,-6.939185411E-2,9.449256897E0,6.333801746E0
1.873870100E1,1.160519004E0,7.037291527E0,5.237888813E0
1.875957503E1,-5.766702294E-1,8.738588333E0,5.261816978E0
1.878041853E1,1.158126116E0,7.898707390E0,5.637490273E0
1.880129256E1,3.038884699E-1,9.037691116E0,4.780859470E0
1.882213606E1,1.177268744E0,8.338987350E0,4.283152580E0
1.884297957E1,4.737788737E-1,8.396414757E0,3.864408493E0
1.886385359E1,1.897508383E0,7.767102242E0,4.886143684E0
1.888469710E1,8.590233326E-1,9.001798630E0,5.656632900E0
1.890554060E1,1.521835208E0,7.846065521E0,4.536791801E0
1.892641463E1,5.862415433E-1,7.944170952E0,5.592026711E0
1.894725813E1,1.127019525E0,7.915457249E0,3.263810158E0
1.896813216E1,2.033899277E-1,7.609176159E0,3.194418192E0
1.898897566E1,1.150947690E0,7.951349735E0,3.649054527E0
1.900984968E1,-3.876372576E-1,7.345965385E0,2.873780012E0
1.903069319E1,3.613162339E-1,8.051848412E0,3.397808075E0
1.905153670E1,-3.684946895E-1,7.089933395E0,3.342773199E0
1.907238020E1,1.435693622E0,8.099704742E0,6.379265308E0
1.909325423E1,1.684547186E0,6.841079712E0,6.927221775E0
1.911409773E1,1.574477315E0,9.004191399E0,8.941978455E0
1.913494124E1,1.115055323E0,7.592426300E0,5.484349728E0
1.915581526E1,-7.489534616E-1,9.578469276E0,4.589433670E0
1.917665877E1,1.741974831E0,7.984848976E0,4.395615101E0
1.919753279E1,-2.751746178E-1,8.489734650E0,4.204189301E0
1.921837630E1,2.574677229E0,8.417949677E0,4.297509670E0
1.923921980E1,-9.643075466E-1,8.293522835E0,3.622733593E0
1.926006331E1,7.489534616E-1,7.891529083E0,4.036691666E0
1.928093733E1,-2.727817893E-1,7.697710514E0,5.300102234E0
1.930178084E1,1.272981644E0,8.693124771E0,7.657032490E0
1.932265486E1,1.852044702E0,7.846065521E0,7.554141045E0
1.934349837E1,9.571290575E-3,1.020538902E1,7.331608772E0
1.936434187E1,2.141576290E0,7.913064480E0,3.565305710E0
1.938521590E1,-7.082754970E-1,8.496912956E0,3.835694790E0
1.940605940E1,2.364108801E0,8.384450912E0,3.929014683E0
1.942690291E1,-1.234696507E0,9.260223389E0,4.541577339E0
1.944777693E1,2.199003935E0,9.006584167E0,7.326822758E0
1.946862044E1,2.632105052E-1,8.374878883E0,8.080561638E0
1.948946394E1,1.083948612E0,9.626325607E0,8.032705307E0
1.951033796E1,1.552941918E0,7.312466145E0,5.288137913E0
1.953121199E1,1.459621787E-1,8.980263710E0,4.347758770E0
1.955205550E1,1.986042738E0,6.774080753E0,2.079362869E0
1.957292952E1,-5.623133183E-1,6.924828529E0,4.024727821E0
1.959377302E1,1.909472466E0,9.145368576E0,8.499305725E0
1.961461653E1,-8.063812256E-1,7.439285755E0,3.213560820E0
1.963549055E1,1.024128079E0,8.597412109E0,2.249253273E0
1.965633406E1,1.050449133E0,7.166503906E0,3.404986620E0
1.967720808E1,1.244267747E-1,8.023134232E0,3.117847919E0
1.969805159E1,1.895115495E0,8.982656479E0,6.180660725E0
1.971892561E1,-6.939185858E-1,6.565905571E0,5.663811207E0
1.973976912E1,1.349551916E0,8.152346611E0,3.814159393E0
1.976061262E1,3.900300860E-1,7.068397999E0,2.153540373E0
1.978148665E1,2.201396823E-1,8.252845764E0,2.816352367E0
1.980233015E1,2.172683001E0,8.382058144E0,8.353343964E0
1.982320418E1,1.674975902E-1,7.702496052E0,6.604190350E0
1.984404768E1,1.031306505E0,8.709874153E0,4.342973232E0
1.986492171E1,3.948157430E-1,6.876972198E0,2.967100143E0
1.988576521E1,-2.632104978E-2,7.929814339E0,4.644468784E0
1.990660872E1,1.521835208E0,8.752944946E0,6.946363926E0
1.992745222E1,7.178467698E-3,7.556533813E0,4.223331928E0
1.994832625E1,6.795616150E-1,8.640482903E0,3.962514400E0
1.996916975E1,2.368894368E-1,6.474977970E0,3.605983734E0
1.999004378E1,3.708875179E-1,7.984848976E0,7.317251682E0
2.001088728E1,1.019342422E0,9.480362892E0,7.850851059E0
2.003176130E1,1.256231904E0,7.623532772E0,4.644468784E0
2.005260481E1,2.727817893E-1,8.745766640E0,5.249852657E0
2.007344832E1,1.122233868E0,8.082955360E0,7.893921852E0
2.009432234E1,1.076770201E-1,7.740781307E0,6.295516491E0
2.011516585E1,3.804588020E-1,8.697910309E0,2.624926329E0
2.013600935E1,7.872386575E-1,6.838686943E0,3.254238844E0
2.015685286E1,1.313659668E0,8.513663292E0,1.047099209E1
2.017769636E1,5.312066078E-1,7.913064480E0,6.168696880E0
2.019857039E1,4.378865361E-1,6.314659119E0,2.744567633E0
2.021941389E1,7.585247755E-1,7.580461979E0,5.371886730E0
2.024025740E1,9.260223508E-1,8.398807526E0,9.164510727E0
2.026113142E1,1.663011789E0,7.578069210E0,5.860022545E0
2.028197493E1,6.867401004E-1,6.759724140E0,3.019742250E0
2.030284895E1,1.452443361E0,7.338787079E0,6.463014126E0
2.032369246E1,9.978070259E-1,7.039684296E0,8.353343964E0
2.034453596E1,1.375872970E0,8.898907661E0,7.740781307E0
2.036540999E1,8.159525394E-1,6.865008354E0,3.294916868E0
2.038625349E1,7.010970116E-1,8.190631866E0,6.013163090E0
2.040712752E1,1.363908887E0,8.276773453E0,7.243073940E0
2.042797102E1,9.379864931E-1,7.982456207E0,5.458028316E0
2.044881453E1,2.799602449E-1,6.936792850E0,3.888336897E0
2.046968855E1,1.373480201E0,8.106883049E0,5.295316696E0
2.049053206E1,7.441678643E-1,7.269395351E0,2.935993433E0
2.051140608E1,9.714859724E-1,8.207381248E0,5.881557941E0
2.053224959E1,1.378265858E0,7.714460373E0,9.367900848E0
2.055309309E1,1.048056364E0,8.743373871E0,9.391828537E0
2.057396712E1,1.399801254E0,6.675975323E0,4.321437836E0
2.059481062E1,1.945364833E0,7.673782349E0,5.690132141E0
2.061568464E1,1.086341500E0,6.240481377E0,4.419543266E0
2.063652815E1,1.155733347E0,7.015756130E0,6.156732559E0
2.065737166E1,1.926222205E0,6.608976364E0,8.965906143E0
2.067821516E1,1.584048629E0,5.871986866E0,9.588040352E0
2.069905867E1,1.734796405E0,6.147161484E0,6.290730953E0
2.071990217E1,1.746760488E0,6.855436802E0,3.744767427E0
2.074074568E1,9.858429432E-1,7.621140003E0,7.022934437E0
2.076158919E1,1.954936147E0,6.910471916E0,6.876972198E0
2.078246321E1,2.019542217E0,6.451049805E0,5.465207100E0
2.080330672E1,1.229910851E0,7.539783955E0,4.256831646E0
2.082415022E1,1.043270707E0,6.716653347E0,7.843672752E0
2.084499373E1,1.318445325E0,7.247859955E0,7.745566845E0
2.086583723E1,1.560120344E0,6.867401123E0,4.948357105E0
2.088671126E1,1.983649969E0,7.896314621E0,6.072983742E0
2.090755476E1,1.545763373E0,7.264609337E0,7.054041386E0
2.092839827E1,1.586441398E0,8.219346046E0,9.054440498E0
2.094924177E1,2.258824587E0,7.200003147E0,7.178467751E0
2.097011580E1,1.739582062E0,8.274380684E0,6.288337708E0
2.099095930E1,1.385444283E0,6.192625046E0,4.130012035E0
2.101180281E1,4.546363056E-1,8.106883049E0,4.390829563E0
2.103264632E1,1.538584948E0,8.212167740E0,6.898507595E0
2.105352034E1,2.079362869E0,6.982256413E0,3.749552965E0
2.107436384E1,6.843472719E-1,5.400600910E0,2.770888567E0
2.109520735E1,1.529013634E0,5.407779217E0,2.318645239E0
2.111605086E1,-3.852444589E-1,7.334001541E0,2.419143677E0
2.113692488E1,-7.896314561E-2,5.472385406E0,1.136590719E0
2.115776838E1,3.230310678E-1,5.436492920E0,7.034898400E-1
2.117864241E1,2.634497643E0,3.809373617E0,8.118846893E0
2.119948592E1,1.016949654E0,1.367258835E1,5.438885689E0
2.122032942E1,2.072184324E0,2.397608280E0,4.383651257E0
2.124117293E1,2.012363911E0,1.175115204E1,1.997289085E1
2.126204695E1,4.019941807E0,1.560120344E0,1.323470211E1
2.128289046E1,8.470591903E-1,1.220100307E1,6.343372822E0
2.130370344E1,2.924029350E0,1.339980721E0,7.178467751E0
2.132454695E1,1.808973908E0,1.000199890E1,9.523433685E0
2.134542097E1,5.551348686E0,3.692125320E0,6.549155712E0
2.136626448E1,1.191625714E0,1.296909928E0,8.604590416E0
2.138713850E1,2.091326952E0,4.517649174E0,1.109551907E1
2.140798201E1,1.184447169E0,4.326223373E0,2.895315409E0
2.142879500E1,-7.848458290E-1,9.726823807E0,-2.060220242E0
2.144966902E1,-1.411765367E-1,1.390469265E1,-3.919443607E0
2.147051253E1,2.416750938E-1,7.511070251E0,3.211168051E0
2.149138655E1,-1.435693540E-2,7.063612461E0,4.280759811E0
2.151223006E1,4.139583111E-1,4.326223373E0,4.857429981E0
2.153310408E1,4.402793646E-1,1.247856998E1,5.661418438E0
2.155394759E1,8.973084688E-1,1.060977554E1,5.008177757E0
2.157482161E1,6.053841114E-1,8.477770805E0,7.542177200E0
2.159566511E1,2.017149448E0,4.455435753E0,1.082273674E1
2.161653914E1,1.672582984E0,1.244267750E1,1.172961617E1
2.163738264E1,1.574477315E0,1.218903828E1,1.366301727E1
2.165822615E1,4.474578202E-1,9.533005714E0,5.666203976E0
2.167910017E1,2.660818815E0,9.674181938E0,9.068798065E0
2.169994368E1,1.268195957E-1,9.437292099E0,3.806980848E0
2.172078718E1,1.560120344E0,5.362315655E0,5.379065514E0
2.174163069E1,4.211367965E-1,3.512663603E0,9.116654396E0
2.176250471E1,1.330409408E0,7.353144169E0,5.754738331E0
2.178334822E1,-1.000199914E0,8.657232285E0,-7.202396393E-1
2.180422224E1,1.674975872E0,9.724431038E0,-1.158126116E0
2.182506575E1,2.868994236E0,1.658226132E0,2.081755638E0
2.184593977E1,1.002592683E0,4.292723656E0,3.079562664E0
2.186678328E1,-2.392822690E-2,5.625525951E0,3.972085476E0
2.188762678E1,-7.896314561E-2,1.171525955E1,5.625525951E0
2.190847029E1,-7.657032609E-1,4.051048756E0,5.235496044E0
2.192934431E1,-5.599204898E-1,1.064088249E1,1.148076344E1
2.195018782E1,2.254039049E0,7.463213921E0,6.769295216E0
2.197103133E1,1.586441398E0,1.353380489E1,7.817351341E0
2.199190535E1,3.818944931E0,4.510470867E0,3.376272678E0
2.201274885E1,7.896314859E-1,1.328255844E1,1.588834190E1
2.203359236E1,1.323230863E0,2.285145521E0,3.639483213E0
2.205446638E1,4.115654826E-1,1.287817192E1,8.554341316E0
2.207530989E1,3.014956415E-1,3.424129248E0,3.148954630E0
2.209615340E1,2.859423161E0,6.853044033E0,1.254078388E1
2.211699690E1,2.536391914E-1,7.896314621E0,6.984649181E0
2.213784041E1,2.261217356E0,8.884550095E0,5.929414749E0
2.215871443E1,1.739582062E0,5.883950710E0,1.414158225E0
2.217955794E1,-1.507478207E-1,4.448257446E0,2.926422119E0
2.220040144E1,1.210768223E0,6.173482418E0,-1.770688742E-1
2.222124495E1,1.914258152E-1,3.680161238E0,1.143769264E0
2.224211897E1,1.643869162E0,1.204546928E1,5.790630817E0
2.226296248E1,1.447657704E0,5.814558983E0,8.231309891E0
2.228380598E1,2.773281336E0,1.097587776E1,2.349751854E1
2.230464949E1,4.213760853E0,7.051648140E0,1.542652798E1
2.232549300E1,-8.015955687E-1,5.941378593E0,2.624926329E0
2.234633650E1,1.404586911E0,8.417949677E0,8.130811691E0
2.236718001E1,2.457428932E0,4.350151539E0,1.239242840E1
2.238802351E1,1.804188251E0,9.202795982E0,4.802394867E0
2.240886702E1,2.983849764E0,2.900100946E0,8.255237937E-1
2.242974104E1,-1.019342422E0,1.157169056E1,5.469992638E0
2.245058455E1,3.065205812E0,6.417550564E0,1.024606609E1
2.247142805E1,9.308080077E-1,5.158925533E0,8.219346046E0
2.249227156E1,-3.134597540E-1,7.044469833E0,6.608976364E0
2.251311506E1,1.430907965E0,9.221938133E0,3.450450182E0
2.253395857E1,1.019342422E0,6.451049805E0,2.861815929E0
2.255480208E1,2.940778971E0,8.721838951E0,6.987041831E-1
2.257564558E1,1.529013634E0,4.273581028E0,6.101697922E0
2.259651961E1,1.055234790E0,9.025727272E0,8.018348694E0
2.261736311E1,1.674975827E-2,7.231110096E0,4.957928658E0
2.263820662E1,-5.000999570E-1,1.090648556E1,7.298109055E0
2.265905012E1,3.223132133E0,8.049455643E0,1.084427261E1
2.267989363E1,1.603191137E0,4.345366001E0,1.234696484E1
2.270073714E1,2.857030153E0,6.795616150E0,9.597611427E0
2.272161116E1,-3.110669553E-1,7.537391186E0,-2.555534601E0
2.274245466E1,-8.973084688E-1,6.089733601E0,-2.840280533E0
2.276329817E1,2.854637384E0,1.004506969E1,8.317451477E0
2.278414168E1,1.555334687E0,5.898307800E0,-3.184846878E0
2.280498518E1,8.422735929E-1,5.556134224E0,6.582654953E0
2.282582869E1,1.873580098E0,4.912465096E0,1.120080280E1
2.284670271E1,4.307080805E-2,1.008335495E1,1.122473145E1
2.286754622E1,-9.092725813E-2,9.047262192E0,2.804388046E0
2.288838972E1,1.505085468E0,9.602396965E0,9.274580956E0
2.290923323E1,-1.579262912E-1,1.132762241E1,5.651846886E0
2.293007674E1,2.744567633E0,-1.148554832E-1,1.220339537E0
2.295092024E1,5.886343718E-1,1.576152229E1,1.216032505E1
2.297176375E1,1.306481123E0,4.144368649E0,-3.302095234E-1
2.299263777E1,8.805587292E-1,7.322037220E0,6.120840549E0
2.301348128E1,1.277767301E0,7.700103283E0,7.372286797E0
2.303432478E1,8.614161611E-2,9.253045082E0,8.080561638E0
2.305516829E1,1.660618901E0,9.820143700E0,4.070191383E0
2.307604231E1,-5.383850932E-1,6.742974281E0,4.307080746E0
2.309688582E1,8.494520187E-1,6.745367050E0,2.897708178E0
2.311772932E1,-2.751746178E-1,4.780859470E0,-1.481157184E0
2.313860335E1,-6.317051649E-1,6.695117950E0,-1.335195065E0
2.315944685E1,8.709874153E-1,9.449256897E0,1.548156261E0
2.318029036E1,1.794617027E-1,7.668996811E0,8.389236450E0
2.320113386E1,3.019742250E0,8.269595146E0,1.123908806E1
2.322200789E1,4.307080805E-2,6.214160442E0,1.095194912E1
2.324285139E1,1.878365755E0,1.099980545E1,1.093759251E1
2.326369490E1,-9.978070259E-1,9.683753014E0,3.333201885E0
2.328453841E1,3.852444589E-1,8.444271088E0,4.130012035E0
2.330541243E1,1.493121386E0,6.721438885E0,6.034698486E0
2.332625593E1,1.744367719E0,8.252845764E0,6.977470875E0
2.334709944E1,6.364908218E-1,4.192225456E0,1.600798368E0
2.336797346E1,9.595218897E-1,6.513263226E0,7.992027760E0
2.338881697E1,1.847259045E0,2.605783939E0,1.057388306E1
2.340966048E1,2.246860504E0,9.537791252E0,7.652246952E0
2.343050398E1,-4.881358147E-1,1.000678444E1,1.739582062E0
2.345137801E1,7.896314561E-2,8.659625053E0,7.944170952E0
2.347222151E1,2.383251429E0,6.312266350E0,8.647661209E0
2.349309553E1,-7.657032609E-1,5.948556900E0,2.746960402E0
2.351393904E1,3.134597540E-1,5.960521221E0,1.210768223E0
2.353478255E1,7.465606928E-1,2.699103832E0,2.254039049E0
2.355565657E1,-1.674975827E-2,1.193779182E1,5.067998409E0
2.357650008E1,-1.507478207E-1,1.083709335E1,-3.278166950E-1
2.359737410E1,-1.914258115E-2,7.802994728E0,1.131326580E1
2.361821760E1,4.754538536E0,4.991427898E0,1.454596901E1
2.363906111E1,-1.074377418E0,7.824530125E0,6.625725746E0
2.365990462E1,-2.321037948E-1,9.789037704E0,-2.943171740E0
2.368077864E1,1.804188251E0,6.683153629E0,2.773281336E0
2.370162214E1,3.014956415E-1,8.133204460E0,3.914657831E0
2.372246565E1,9.403793216E-1,5.630311489E0,1.713261008E0
2.374330916E1,1.045663476E0,7.817351341E0,4.488935471E0
2.376415266E1,2.175075769E0,7.025327206E0,9.020941734E0
2.378499617E1,6.987041831E-1,8.149953842E0,1.035613632E1
2.380587019E1,1.000199914E0,8.315058708E0,8.429914474E0
2.382671370E1,9.451649189E-1,8.152346611E0,2.170290232E0
2.384755720E1,1.962114573E0,5.077569485E0,3.065205812E0
2.386840071E1,2.170290232E0,7.300501823E0,4.996213913E0
2.388927473E1,6.460621357E-1,6.501298904E0,1.196411371E0
2.391011824E1,2.818745136E0,5.991627693E0,3.414557934E0
2.393096174E1,1.395015597E0,5.029713154E0,7.118647575E0
2.395180525E1,1.603191137E0,5.603990555E0,1.283749390E1
2.397267927E1,9.643075466E-1,8.001599312E0,4.601397991E0
2.399352278E1,3.158525825E-1,6.716653347E0,6.123233318E0
2.401436629E1,3.658625841E0,1.588116360E1,4.536791801E0
2.403520979E1,2.009970903E0,-2.938386202E0,-1.694118381E0
2.405605330E1,2.352144718E0,9.784252167E0,1.308634663E1
2.407689680E1,4.654039860E0,7.475177765E0,8.303094864E0
2.409774031E1,-1.466800332E0,1.371326637E1,5.156532764E0
2.411858382E1,1.320838094E0,5.891129494E0,4.091726780E0
2.413942732E1,3.089133978E0,3.914657831E0,1.209332561E1
2.416030134E1,-2.053041935E0,8.886942863E0,3.450450182E0
2.418114485E1,3.474378586E0,4.764110088E0,4.498506486E-1
2.420198836E1,-3.972085714E-1,7.109076023E0,4.577469826E0
2.422283186E1,2.617748022E0,4.163511276E0,1.155494022E1
2.424367537E1,2.024327993E0,1.433300781E1,9.004191399E0
2.426451887E1,-7.034898400E-1,1.210289669E1,-4.984249592E0
2.428533186E1,3.507878065E0,-1.945364833E0,1.942971945E0
2.430617537E1,-2.321037948E-1,3.412165165E0,3.814159393E0
2.432704939E1,-1.753939033E0,6.218945980E0,-4.584648132E0
2.434789290E1,1.299302697E0,6.886543751E0,-4.378865361E-1
2.436873640E1,-1.004985452E0,3.503092289E0,6.924828529E0
2.438957991E1,1.385444283E0,5.637490273E0,1.557248974E1
2.441042342E1,1.076770201E-1,1.301934814E1,6.704689026E0
2.443126692E1,1.052841991E-1,9.544969559E0,3.835694790E0
2.445211043E1,1.024128079E0,1.549831200E1,2.115733719E1
2.447295393E1,1.938186288E0,5.903093338E0,1.029870892E1
2.449382796E1,-7.417750359E-1,1.303849030E1,2.931207657E0
2.451467146E1,1.328016520E0,8.255238533E0,3.077169895E0
2.453551497E1,4.354937077E-1,6.221338749E0,1.245464230E1
2.455635847E1,9.236295223E-1,6.857829571E0,1.264846039E1
2.457720198E1,-9.092725813E-2,7.757531166E0,2.084148407E0
2.459804548E1,1.426122308E0,6.245266914E0,2.981456995E0
2.461891951E1,1.505085468E0,4.615755081E0,6.436692715E0
2.463976301E1,4.689932466E-1,6.364908218E0,7.278966427E0
2.466060652E1,1.586441398E0,1.119601727E1,7.417750359E0
2.468145003E1,1.686939955E0,8.408378601E0,2.679961443E0
2.470229353E1,1.914258115E-2,5.005784988E0,6.053841114E0
2.472316756E1,7.609176040E-1,6.156732559E0,6.735795975E0
2.474401106E1,0.000000000E0,8.817551613E0,7.843672752E0
2.476485457E1,5.192425251E-1,5.974878311E0,5.168496966E-1
2.478569807E1,9.355936646E-1,2.569891453E0,8.910871506E0
2.480654158E1,3.443271875E0,9.497113228E0,1.364387512E1
2.482738509E1,2.225325108E-1,5.075176716E0,1.519442320E0
2.484825911E1,1.966900229E0,1.560838223E1,1.436650753E1
2.486907210E1,3.115455151E0,3.895515203E0,1.217707443E1
2.488994612E1,1.071984529E0,1.189950657E1,1.020060253E1
2.491078963E1,-1.220339537E-1,4.374079704E0,2.648854733E0
2.493160261E1,1.634297848E0,1.007617569E1,1.445025635E1
2.495247664E1,9.236295223E-1,8.152346611E0,1.101177025E1
2.497332014E1,2.701496840E0,-2.043470621E0,8.350951195E0
2.499416365E1,-9.738788009E-1,1.266999626E1,4.170690060E0
2.501500716E1,7.561319470E-1,6.431907177E0,2.124826431E0
2.503585066E1,1.842473447E-1,1.244507027E1,-8.757730722E-1
2.505669417E1,-5.335994363E-1,6.908079147E0,2.648854733E0
2.507753767E1,2.555534601E0,3.921836376E0,6.955935478E0
2.509841170E1,1.579262912E-1,5.058426857E0,6.570691109E0
2.511925520E1,6.340979934E-1,8.640482903E0,5.268995285E0
2.514009871E1,1.713261008E0,7.183253765E0,3.854837179E0
2.516094221E1,1.969292998E0,7.757531166E0,6.269195557E0
2.518178572E1,1.651047587E0,5.589633465E0,3.830909014E0
2.520262923E1,1.299302697E0,6.238088608E0,1.962114573E0
2.522347273E1,1.007378340E0,6.118447304E0,1.375872970E0
2.524431624E1,1.907079697E0,5.606383324E0,5.333601475E0
2.526515974E1,1.225125194E0,5.675775528E0,6.994220734E0
2.528600325E1,8.709874153E-1,4.309473515E0,8.848658562E0
2.530684676E1,3.330809116E0,7.460821152E0,1.535474300E1
2.532769026E1,3.613162339E-1,1.143290615E1,1.019103146E1
2.534856428E1,2.328216314E0,7.776673794E0,7.331608772E0
2.536940779E1,7.130611539E-1,5.960521221E0,6.932007313E0
2.539025130E1,3.055634499E0,3.692125320E0,8.994620323E0
2.541109480E1,9.044869542E-1,7.281359196E0,3.515056372E0
2.543193831E1,-1.387837082E-1,1.660618901E0,-9.858429432E-1
2.545278181E1,2.871387079E-2,8.733802795E0,4.386044025E0
2.547362532E1,1.818545163E-1,6.427121639E0,6.111268997E0
2.549446883E1,2.751746178E-1,8.374878883E0,5.498706341E0
2.551534285E1,1.902294040E0,9.382257462E0,8.602197647E0
2.553618635E1,-1.014556766E0,6.446264267E0,5.647061348E0
2.555706038E1,2.991028309E0,6.891329288E0,4.177868366E0
2.557790388E1,1.261017561E0,9.013762474E0,4.532006264E0
2.559874739E1,1.241874933E0,5.280959606E0,3.524627686E0
2.561959090E1,1.021735311E0,7.058826923E0,4.613361835E0
2.564043440E1,-1.473978758E0,8.788837433E0,9.020941734E0
2.566127791E1,2.629712105E0,1.210768223E1,1.203111267E1
2.568209090E1,2.711068153E0,8.750552177E0,9.932606697E0
2.570293440E1,2.526820660E0,8.559126854E0,1.044945621E1
2.572377791E1,1.708475351E0,6.709474564E0,5.955735683E0
2.574462141E1,3.876372576E-1,8.616554260E0,7.178468257E-2
2.576549544E1,-7.322037220E-1,7.345965385E0,3.134597540E-1
2.578633894E1,1.612762451E0,7.558926582E0,6.908079147E0
2.580715193E1,2.392822653E-1,5.673382282E0,4.003192425E0
2.582799544E1,-8.901300430E-1,8.729017258E0,4.821537495E0
2.584880842E1,2.467000246E0,4.223331928E0,9.942177773E0
2.586963892E1,2.486142635E0,1.080120182E1,8.305487633E0
2.589048243E1,2.206182480E0,5.067998409E0,6.599404812E0
2.591132593E1,1.646261930E0,1.021017456E1,1.259342575E1
2.593216944E1,3.182454109E0,2.550748825E0,9.480362892E0
2.595301295E1,4.211367965E-1,7.858029366E0,6.398407936E0
2.597385645E1,1.256231904E0,4.886143684E0,5.314459324E0
2.599469996E1,2.019542217E0,8.315058708E0,1.340459251E1
2.601554346E1,2.414358139E0,6.671189308E0,1.014078236E1
2.603638697E1,5.623133183E-1,8.980263710E0,3.644268990E0
2.605719996E1,-1.387837082E-1,1.066002464E1,4.747360229E0
2.607804346E1,1.411765337E0,5.053641319E0,7.946564198E0
2.609888697E1,3.589234054E-1,6.943971157E0,1.151904774E1
2.611973048E1,2.280359983E0,8.776873589E0,7.458428383E0
2.614057398E1,1.775474429E0,9.035298347E0,4.065405846E0
2.616141749E1,2.053041935E0,6.257231236E0,4.357329845E0
2.618226099E1,1.129412293E0,6.592226505E0,5.156532764E0
2.620310450E1,-5.982056633E-2,8.128418922E0,4.237689018E0
2.622394800E1,1.162911773E0,8.743373871E0,3.448057413E0
2.624479151E1,1.174875975E0,8.752944946E0,7.398607731E0
2.626563502E1,2.830709219E0,7.140182972E0,1.101416302E1
2.628647852E1,4.474578202E-1,8.209774017E0,5.247459888E0
2.630729151E1,2.249253243E-1,5.879165173E0,2.177468538E-1
2.632816553E1,-7.657032460E-2,6.817151546E0,2.208575249E0
2.634900904E1,-9.332008362E-1,7.932207108E0,4.570291340E-1
2.636985254E1,4.283152521E-1,8.592626572E0,2.935993433E0
2.639069605E1,3.012563705E0,1.165543938E1,7.231110096E0
2.641153956E1,1.210768223E0,7.259823799E0,9.219545364E0
2.643238306E1,2.184647083E0,6.477370739E0,1.154058361E1
2.645325709E1,1.062413216E0,3.620340586E0,9.829715729E0
2.647410059E1,2.419143677E0,1.064806080E1,1.045902824E1
2.649494410E1,4.594219327E-1,5.441278458E0,-1.500299811E0
2.651578760E1,-4.953143001E-1,6.197410583E0,2.112862349E0
2.653663111E1,2.816352367E0,6.867401004E-1,4.235296249E0
2.655747462E1,8.111668825E-1,4.809573650E0,7.671389580E0
2.657831812E1,1.942971945E0,3.562912941E0,5.175675392E0
2.659919214E1,5.814558864E-1,6.848258495E0,9.870393753E0
2.662003565E1,1.440479279E0,6.769295216E0,1.006181908E1
2.664087916E1,-1.244267747E-1,9.760323524E0,1.205982566E0
2.666172266E1,-3.302095234E-1,7.269395351E0,1.684547186E0
2.668253565E1,2.979064226E0,7.764709473E0,6.943971157E0
2.670337916E1,6.699903607E-1,6.049055576E0,4.177868366E0
2.672422266E1,6.819544435E-1,1.094237804E1,9.899106979E0
2.674506617E1,2.947957516E0,4.792823792E0,2.763710260E0
2.676590967E1,4.642075896E-1,1.016231823E1,5.747560024E0
2.678675318E1,1.806581140E0,3.969692707E0,3.567698479E0
2.680759669E1,1.799402595E0,8.341380119E0,9.820143700E0
2.682844019E1,1.148554832E-1,1.039442158E1,4.163511395E-1
2.684928370E1,2.512463629E-1,3.192025423E0,-1.734796405E0
2.687012720E1,2.536391914E-1,1.144726372E1,1.556291866E1
2.689097071E1,4.474578202E-1,1.311984634E1,8.705088615E0
2.691181422E1,1.344766378E0,3.584448338E0,-2.792423964E0
2.693265772E1,-2.273181528E-1,1.420379543E1,4.843072891E0
2.695350123E1,2.912065268E0,5.711667538E0,1.066481018E1
2.697437525E1,1.576870084E0,9.224330902E0,9.473184586E0
2.699521876E1,6.388836503E-1,8.539983749E0,3.792623997E0
2.701606226E1,3.421736360E-1,6.675975323E0,9.250652313E0
2.703690577E1,3.797409534E0,1.204786205E1,1.042552853E1
2.705774927E1,-1.229910851E0,-4.570291340E-1,-5.297709465E0
2.707859278E1,1.505085468E0,4.792823792E0,1.158365440E1
2.709946680E1,2.297109842E0,-4.450650215E-1,1.169372463E1
2.712031031E1,1.086341500E0,1.319402409E1,8.324629784E0
2.714115382E1,5.048855543E-1,8.958727837E0,-4.261617184E0
2.716199732E1,1.593619823E0,3.766302824E0,3.742374659E0
2.718284083E1,7.369893789E-1,4.208974838E0,5.436492920E0
2.720368433E1,6.556333899E-1,7.135396957E0,4.005585194E0
2.722452784E1,1.421336651E0,8.561519623E0,5.359922886E0
2.724537134E1,5.551348329E-1,3.067598581E0,6.417550564E0
2.726621485E1,4.067798331E-2,9.985248566E0,5.721239090E0
2.728705836E1,1.529013634E0,8.291130066E0,5.565705299E0
2.730787134E1,1.330409408E0,1.081316566E1,3.510270834E0
2.732871485E1,2.981456995E0,-3.235096216E0,3.964907169E0
2.734955836E1,-2.481357098E0,8.717052460E0,2.043470621E0
2.737040186E1,2.117648125E0,-6.580262184E-1,8.059026718E0
2.739121485E1,6.652047038E-1,1.635015678E1,9.547362328E-1
2.741205836E1,8.279166222E-1,5.221138954E0,2.531606436E0
2.743290186E1,2.440679073E-1,1.050209904E1,3.067598581E0
2.745371485E1,2.713460922E0,2.995813847E0,9.020941257E-1
2.747455836E1,-8.279166222E-1,7.374679565E0,1.414158225E0
2.749537134E1,2.526820660E0,7.195217609E0,5.687739372E0
2.751621485E1,1.045663476E0,6.697510719E0,2.201396942E0
2.753702784E1,1.155733347E0,9.817750931E0,2.522035122E0
2.755787134E1,1.143769264E0,9.253045082E0,8.087740898E0
2.757874537E1,2.835494757E0,5.046463013E0,1.401954746E1
2.759958887E1,-6.699903309E-2,5.936593056E0,8.874979019E0
2.762043238E1,1.366301775E0,1.070070267E1,4.376472473E0
2.764127589E1,2.799602449E-1,9.963713646E0,-2.811566591E0
2.766211939E1,2.194218397E0,4.950749874E0,8.547162056E0
2.768296290E1,5.943771362E0,6.340980053E0,1.501017666E1
2.770380640E1,2.067398787E0,3.639483213E0,9.757930756E0
2.772468043E1,8.494520187E-1,1.050449181E1,2.533999205E0
2.774552393E1,-1.639083505E0,1.093519974E1,-2.445464849E0
2.776636744E1,1.048056364E0,7.621140003E0,8.709874153E0
2.778721094E1,1.416550994E0,9.133403778E0,7.427321434E0
2.780805445E1,1.337587833E0,2.742174864E0,1.624726534E0
2.782889796E1,6.125625968E-1,1.250728416E1,-1.117448211E0
2.784977198E1,6.221339107E-1,3.656233072E0,9.114261627E0
2.787061549E1,-3.924229145E-1,1.549113369E1,8.207381248E0
2.789145899E1,2.409572363E0,-1.380658627E0,5.852844238E0
2.791230250E1,-6.747759581E-1,1.448375511E1,1.808973885E1
2.793314600E1,2.995813847E0,3.117847919E0,-2.912065268E0
2.795398951E1,-5.599204898E-1,5.979663849E0,-9.260223508E-1
2.797486353E1,8.327022791E-1,2.605783939E0,9.092726111E-1
2.799567652E1,2.708675146E0,4.314259052E0,1.064566803E1
2.801655054E1,-6.915257573E-1,1.136590767E1,4.098905087E0
2.803739405E1,-7.178467698E-3,8.547162056E0,1.521835208E0
2.805823756E1,6.915257573E-1,5.795416355E0,8.573483467E0
2.807908106E1,-4.785645287E-3,8.963513374E0,6.372086525E0
2.809995508E1,4.283152521E-1,6.809973240E0,-1.713261008E0
2.812079859E1,7.657032609E-1,7.092326164E0,7.917850018E0
2.814164210E1,1.497906923E0,4.051048756E0,9.939785004E0
2.816248560E1,5.192425251E-1,6.728617191E0,9.401400566E0
2.818332911E1,1.062413216E0,6.211767673E0,1.138983607E0
2.820417261E1,3.046063185E0,6.836294174E0,7.259823799E0
2.822501612E1,8.853443712E-2,5.419743061E0,2.294716835E0
2.824589014E1,2.720639229E0,3.227917671E0,7.154539585E0
2.826673365E1,2.261217356E0,7.731209755E0,7.525427341E0
2.828757716E1,1.148554921E0,2.809173822E0,1.019103146E1
2.830842066E1,1.103091240E0,1.152622700E1,8.688339233E0
2.832926417E1,1.667797327E0,6.075376511E0,9.190832138E0
2.835010767E1,1.797009826E0,1.035852909E1,5.335994720E0
2.837098170E1,1.301695466E0,6.283552170E0,4.984249592E0
2.839182520E1,1.976471543E0,7.735995770E0,9.600004196E0
2.841266871E1,1.459621787E0,7.087540627E0,5.556134224E0
2.843351221E1,3.469592929E-1,8.025527000E0,7.338787079E0
2.845435572E1,7.968099117E-1,6.541976929E0,9.219545364E0
2.847522974E1,-8.015955687E-1,4.295116425E0,8.669196129E0
2.849607325E1,2.199003935E0,7.807780266E0,4.247260094E0
2.851691675E1,9.571290612E-1,8.365307808E0,-1.555334777E-1
2.853772974E1,1.081555843E0,9.133403778E0,4.240081787E0
2.855860377E1,1.828116536E0,7.310073376E0,6.936792850E0
2.857941675E1,1.703689694E0,8.161917686E0,5.637490273E0
2.860026026E1,5.958128572E-1,6.520441532E0,2.416750938E-1
2.862110377E1,-1.301695466E0,7.444071293E0,2.021935225E0
2.864194727E1,-1.409372568E0,5.589633465E0,7.006184578E0
2.866279078E1,7.724031448E0,1.368933868E1,2.003271103E1
2.868366480E1,-6.221338734E-2,1.395015597E0,-5.280959606E0
2.870447779E1,3.857230186E0,5.118247509E0,2.980978394E1
2.872535181E1,4.697110653E0,7.692924976E0,2.994378281E1
2.874619532E1,2.656033039E-1,1.869033813E1,1.803709793E1
2.876700831E1,2.325823545E0,9.142974854E0,2.289931297E0
2.878788233E1,1.131805062E0,7.841279984E0,7.350750923E0
2.880872584E1,-3.230310678E-1,5.123033047E0,5.718846321E-1
2.882956934E1,1.246660590E0,5.611168861E0,5.807380676E0
2.885041285E1,4.666004181E-1,9.456435204E0,4.742574692E0
2.887125635E1,2.392822653E-1,-5.479563713E0,4.335794449E0
2.889213038E1,-3.081955671E0,2.885744095E0,-7.042077065E0
2.891297388E1,-2.665604353E0,5.024927616E0,-1.223928738E1
2.893381739E1,-2.153540403E-2,1.792224121E1,-2.081755638E0
2.895469141E1,2.148754835E0,5.079962254E0,3.397808075E0
2.897553492E1,1.782652855E0,6.149554253E0,2.595255470E1
2.899640894E1,-7.154539824E-1,1.294995594E1,2.515335083E1
2.901725245E1,-4.594219327E-1,2.201875305E1,1.885783577E1
2.903809595E1,-3.541377485E-1,1.132283688E1,1.196172047E1
2.905893946E1,3.189632654E0,4.472185612E0,1.773081589E1
2.907981348E1,9.284151793E-1,1.340219975E1,8.415556908E0
2.910065699E1,4.596612453E0,1.185643578E1,2.596212626E0
2.912150050E1,1.856830359E0,6.900900364E0,1.249771309E1
2.914234400E1,3.538984776E0,2.995813847E0,1.474457359E1
2.916318751E1,-9.667003751E-1,9.492327690E0,4.620540619E0
2.918403101E1,1.521835208E0,1.069591713E1,-1.986042857E-1
2.920490504E1,-2.347358942E0,1.002353382E1,-4.498506486E-1
2.922574854E1,1.263410330E0,1.605584025E0,1.053799057E1
2.924656153E1,8.614161611E-1,4.811966419E0,9.329615593E0
2.926743555E1,-9.140582681E-1,6.821937561E0,-1.390229940E0
2.928827906E1,8.183453679E-1,9.652647018E0,-3.282952785E0
2.930912257E1,-1.706082582E0,5.606383324E0,6.216553211E0
2.932996607E1,1.172483087E0,5.551348686E0,1.152622700E1
2.935084009E1,-3.302095234E-1,7.219145775E0,7.133004189E0
2.937168360E1,2.993421078E0,9.238688469E0,9.267401695E0
2.939252711E1,1.316052437E0,1.169611740E1,6.431907177E0
2.941337061E1,1.617548108E0,5.962913990E0,6.022734642E0
2.943421412E1,3.661018610E-1,6.910471916E0,6.233303070E0
2.945505762E1,3.373879910E0,4.496113777E0,8.973084450E0
2.947590113E1,-1.416550994E0,9.834501266E0,1.947757602E0
2.949674464E1,1.476371527E0,8.604590416E0,4.007977962E0
2.951761866E1,4.378865361E-1,9.978070259E0,6.118447304E0
2.953846217E1,1.359123230E0,-1.734796405E0,7.350750923E0
2.955927515E1,2.196611166E0,1.369173145E1,1.644347763E1
2.958011866E1,2.268395901E0,3.160918713E0,8.729017258E0
2.960096217E1,8.757730722E-1,1.025085258E1,3.792623997E0
2.962177515E1,5.312066078E-1,4.859822750E0,-5.718846321E-1
2.964261866E1,2.589034081E0,7.716853142E0,1.158365440E1
2.966349268E1,1.828116536E0,8.721838951E0,2.187039852E0
2.968433619E1,1.378265858E0,-7.800601721E-1,-9.355936646E-1
2.970517969E1,-3.708875179E-1,8.956335068E0,-1.038485050E0
2.972602320E1,3.859622955E0,4.551148891E0,6.680760860E0
2.974689722E1,-1.555334687E0,1.185404301E1,-3.644268990E0
2.976774073E1,8.350951076E-1,-1.062413216E0,3.603590965E0
2.978858424E1,9.475577474E-1,4.663611412E0,5.180460930E0
2.980942774E1,9.738788009E-1,2.452643156E0,2.249253243E-1
2.983027125E1,-5.647061467E-1,1.202154064E1,7.633104324E-1
2.985111475E1,8.087740541E-1,3.586841106E0,2.744567633E0
2.987195826E1,2.775674343E0,8.023134232E0,1.226800156E1
2.989280176E1,6.245267391E-1,6.460621357E0,1.619940877E0
2.991367579E1,1.708475351E0,7.654639721E0,-5.982056633E-2
2.993451929E1,2.861815929E0,1.598405480E0,7.874779224E0
2.995536280E1,8.805587292E-1,7.719245911E0,7.958528042E0
2.997620630E1,8.039883971E-1,7.123433113E0,3.136990547E0
2.999704981E1,2.498106956E0,6.099305153E0,3.038884640E0
3.001789332E1,1.569691658E0,8.056633949E0,4.283152580E0
3.003873682E1,1.155733347E0,5.072783947E0,6.089733601E0
3.005958033E1,2.309073925E0,7.523034573E0,8.128418922E0
3.008045435E1,6.747759581E-1,5.560919762E0,7.257431030E0
3.010129786E1,1.663011789E0,7.807780266E0,5.297709465E0
3.012211085E1,1.866401732E-1,7.814958572E0,4.340580463E0
3.014295435E1,1.890329838E0,9.956535339E0,4.802394867E0
3.016379786E1,9.834501147E-1,3.203989506E0,4.216153622E0
3.018464136E1,2.868994236E0,4.632504463E0,8.963513374E0
3.020551539E1,2.249253243E-1,3.488735437E0,1.543370605E0
3.022635889E1,1.622333765E0,9.363115311E0,1.243549919E1
3.024720240E1,-1.220339537E-1,1.460339642E1,8.135597110E-1
3.026804590E1,1.696511269E0,1.483550072E0,2.500499725E0
3.028888941E1,-7.106683254E-1,9.298508644E0,2.825923443E0
3.030973292E1,3.938585997E0,-1.375872970E0,1.825723648E0
3.033057642E1,-1.447657704E0,8.544769287E0,2.909672260E0
3.035141993E1,2.124826431E0,1.529013634E0,7.807780266E0
3.037226343E1,-6.867401004E-1,9.578469276E0,6.010770321E0
3.039310694E1,6.580262184E-1,5.670989513E0,2.313859463E0
3.041398096E1,1.172483087E0,1.001874828E1,2.335394859E0
3.043482447E1,2.014756680E0,1.579262912E-1,5.130211830E0
3.045566798E1,2.847459018E-1,4.118047714E0,3.596412420E0
3.047651148E1,-1.770688772E0,5.393422127E0,-2.983849764E0
3.049735499E1,2.146361828E0,9.619147301E0,7.523034573E0
3.051819849E1,1.983649969E0,1.255274773E1,5.067998409E0
3.053904200E1,9.547362328E-1,-2.727817893E-1,6.592226505E0
3.055988550E1,2.100898266E0,1.097827053E1,1.272024536E1
3.058072901E1,1.502692580E0,4.082155228E0,1.825723648E0
3.060157252E1,-4.546362907E-2,9.236295700E0,2.739781857E0
3.062244654E1,1.837687731E0,3.105883837E0,6.888936520E0
3.064329004E1,7.657032460E-2,7.336394310E0,1.348594856E1
3.066413355E1,3.156133175E0,6.786045074E0,1.099262714E1
3.068497706E1,1.007378340E0,1.107876873E1,9.913464546E0
3.070582056E1,2.775674343E0,1.225125194E0,6.606583118E0
3.072669459E1,1.438086390E0,9.013762474E0,6.111268997E0
3.074753809E1,-2.538784742E0,9.200403214E0,-2.892922640E0
3.076838160E1,1.976471543E0,1.023410225E1,2.608176708E0
3.078922510E1,5.503492355E-1,6.013163090E0,7.424928665E0
3.081009913E1,3.565305769E-1,6.175875187E0,4.426722050E0
3.083094263E1,-1.172483116E-1,7.654639721E0,4.527220249E0
3.085178614E1,2.383251429E0,9.729216576E0,6.484549522E0
3.087262965E1,-4.426721931E-1,6.747759819E0,7.161718369E0
3.089350367E1,2.222932339E0,6.513263226E0,1.065284634E1
3.091434717E1,8.901300430E-1,9.135796547E0,9.650253296E0
3.093519068E1,1.923829436E0,7.393822193E0,3.850051641E0
3.095603419E1,1.016949654E0,6.443871498E0,5.860022545E0
3.097687769E1,1.182054400E0,4.800002098E0,1.104526901E1
3.099775172E1,7.585247755E-1,6.917650223E0,1.221057415E1
3.101859522E1,1.347159147E0,8.166703224E0,7.479963779E0
3.103943873E1,-2.416750938E-1,1.001635551E1,3.407379389E0
3.106028223E1,8.183453679E-1,7.188039303E0,3.620340586E0
3.108112574E1,4.211367965E-1,6.606583118E0,3.644268990E0
3.110196925E1,-1.579262912E-1,4.716253281E0,3.830909014E0
3.112281275E1,8.087740541E-1,8.441878319E0,7.456035137E0
3.114365626E1,3.326023519E-1,6.716653347E0,4.063013077E0
3.116449976E1,-1.344766378E0,8.403593063E0,4.443471432E0
3.118534327E1,-1.036092162E0,2.866601467E0,-5.312066078E-1
3.120621729E1,7.006184578E0,6.453442574E0,2.304766846E1
3.122706080E1,-4.546362907E-2,1.482592869E1,5.077569485E0
3.124790430E1,2.486142635E0,1.844866276E0,4.601397991E0
3.126874781E1,-2.945564747E0,8.178668022E0,5.819344521E0
3.128959132E1,7.178467751E0,1.428515148E1,2.496192551E1
3.131043482E1,-4.072584152E0,6.319444656E0,3.603590965E0
3.133127833E1,1.050449133E0,1.505324745E1,3.257349396E1
3.135212183E1,-3.038884699E-1,1.903490448E1,1.598405552E1
3.137296534E1,-2.033899277E-1,1.894158363E1,9.588040352E0
3.139383936E1,-1.651047617E-1,8.465806961E0,1.067438221E1
3.141468287E1,4.151547432E0,-7.034898400E-1,1.685504341E1
3.143552637E1,-9.571290575E-3,1.199522018E1,6.348158360E0
3.145633936E1,-4.474578202E-1,8.439485550E0,-7.709674358E0
3.147718287E1,-9.834501147E-1,8.126026154E0,6.324230194E0
3.149802637E1,3.826123476E0,1.890329838E0,1.631187248E1
3.151886988E1,-5.455635786E-1,9.049654961E0,1.217468166E1
3.153971339E1,2.486142635E0,8.599804878E0,-2.368894368E-1
3.156055689E1,3.821337700E0,5.405386448E0,1.569691658E0
3.158140040E1,6.723831892E-1,4.610969067E0,5.680561066E0
3.160224390E1,1.600798368E0,5.414957523E0,1.273220921E1
3.162311793E1,1.414158225E0,8.451449394E0,1.004267693E1
3.164396143E1,1.129412293E0,8.901300430E0,5.867201328E0
3.166480494E1,2.048256159E0,5.522634506E0,4.718646049E0
3.168564844E1,1.038485050E0,6.781259537E0,6.250052929E0
3.170649195E1,1.576870084E0,6.917650223E0,6.599404812E0
3.172733546E1,1.217946768E0,5.793023586E0,7.508677483E0
3.174817896E1,2.967100143E-1,6.173482418E0,7.599604607E0
3.176902247E1,1.088734269E0,6.570691109E0,6.068198204E0
3.178983546E1,5.168496966E-1,7.482356548E0,2.419143677E0
3.181067896E1,1.660618901E0,5.761917114E0,2.708675146E0
3.183152247E1,1.684547186E0,6.515655994E0,4.436293125E0
3.185239649E1,6.340979934E-1,6.412764549E0,4.699503899E0
3.187324000E1,3.134597540E-1,6.293123722E0,2.270788670E0
3.189408350E1,-1.890329868E-1,7.726424217E0,6.999006271E0
3.191492701E1,3.294916868E0,7.647460938E0,1.111705399E1
3.193577051E1,2.919243574E-1,7.001399040E0,5.651846886E0
3.195664454E1,2.005185366E0,8.477770805E0,7.877171993E0
3.197748804E1,3.373879790E-1,7.262216568E0,4.180261135E0
3.199833155E1,7.800601721E-1,7.738388538E0,6.199803352E0
3.201917506E1,1.854437590E0,6.080162525E0,4.197010994E0
3.204001856E1,1.761117458E0,9.736394882E0,7.762316704E0
3.206086207E1,2.225325108E-1,4.469792843E0,1.995614052E0
3.208167506E1,-2.392822644E-3,7.972885132E0,5.051248550E0
3.210251856E1,3.326023519E-1,3.689732552E0,8.035098076E0
3.212339258E1,3.010170937E0,7.762316704E0,1.441197109E1
3.214423609E1,4.067798555E-1,7.881958008E0,1.117448211E0
3.216507960E1,-1.026520967E0,7.417750359E-2,-7.317251682E0
3.218595362E1,1.091127157E0,1.010010433E1,7.558926582E0
3.220679712E1,4.074976921E0,1.053799057E1,1.550549030E1
3.222761011E1,6.508477330E-1,-7.968099117E-1,6.072983742E0
3.224845362E1,2.347358942E0,1.330170155E1,1.639562035E1
3.226926661E1,1.418943882E0,5.484349728E0,1.084905815E1
3.229011011E1,2.933600664E0,1.420618820E1,1.084427261E1
3.231095362E1,-6.556333899E-1,5.331208706E0,1.115055323E0
3.233176661E1,2.737389088E0,-2.251646042E0,2.073380852E1
3.235261011E1,2.450250387E0,9.604789734E0,1.977428627E1
3.237345362E1,-2.009970993E-1,9.963713646E0,-2.933600664E0
3.239426661E1,1.289731383E0,1.158604717E1,2.599323273E1
3.241511011E1,1.820937991E0,7.022934437E0,1.607976723E1
3.243592310E1,-3.972085714E-1,1.083230782E1,8.812766075E0
3.245679712E1,2.924029350E0,8.736195564E0,2.526820660E0
3.247764063E1,1.753939033E0,6.398407936E0,1.356730461E1
3.249848414E1,1.897508383E0,8.008777618E0,8.092526436E0
3.251929712E1,1.067198873E0,-9.834501147E-1,4.460221291E0
3.254014063E1,3.852444589E-1,1.212203979E1,7.020541668E0
3.256095362E1,2.151147604E0,4.362115860E0,6.707081795E0
3.258182764E1,-1.488335729E0,1.479960823E1,8.542376757E-1
3.260267115E1,4.955535889E0,6.204588890E0,-3.541377485E-1
3.262351466E1,9.882357717E-1,4.345366001E0,4.661218643E0
3.264435816E1,9.738788009E-1,5.886343479E0,1.004028416E1
3.266517115E1,9.571290575E-3,7.999206066E0,8.331808090E0
3.268601466E1,3.780659735E-1,5.709274769E0,4.450650215E0
3.270685816E1,-7.848458290E-1,4.993820667E0,2.648854733E0
3.272770167E1,2.565105915E0,5.589633465E0,5.034498692E0
3.274851466E1,3.589234129E-2,1.141137123E1,6.738188744E0
3.276935816E1,3.515056372E0,8.293522835E0,1.544806290E1
3.279017115E1,3.469592810E0,9.745966911E0,9.834501266E0
3.281104517E1,2.586641312E0,-3.175275564E0,6.364908218E0
3.283188868E1,-1.820937991E0,1.260778236E1,7.793423176E0
3.285273218E1,4.273581028E0,4.417150497E0,1.423729420E0
3.287354517E1,4.378865361E-1,7.566105366E0,3.900300860E-1
3.289438868E1,2.433500528E0,5.359922886E0,8.305487633E0
3.291520167E1,1.694118381E0,9.801001549E0,9.121439934E0
3.293604517E1,3.026920557E0,3.072384357E0,2.225325108E0
3.295688868E1,1.981257200E0,6.221339107E-1,4.156332970E0
3.297770167E1,9.571290612E-1,6.056233883E0,6.829115868E0
3.299854517E1,-7.178468108E-1,1.013838959E1,6.044270039E0
3.301938868E1,-3.022135019E0,7.422535896E0,1.237089276E0
3.304020167E1,1.371087432E0,4.701896667E0,4.618147850E0
3.306107569E1,2.644068956E0,6.587440968E0,1.252881908E1
3.308191920E1,2.385644197E0,1.179661560E1,9.154939651E0
3.310276270E1,1.605584025E0,9.119047165E0,3.177668571E0
3.312360621E1,1.780260086E0,7.932207108E0,6.635297298E0
3.314444971E1,1.835294962E0,6.829115868E0,6.273981094E0
3.316529322E1,-9.332008660E-2,6.994220734E0,2.926422119E0
3.318616724E1,-2.679961324E-1,5.848058701E0,3.041277647E0
3.320701075E1,1.674975902E-1,4.261617184E0,8.013563156E0
3.322785425E1,1.509871125E0,1.048295593E1,8.927620888E0
3.324866724E1,9.930213690E-1,5.455635548E0,-3.924229145E-1
3.326951075E1,1.229910851E0,3.677768469E0,3.957728624E0
3.329035425E1,3.658625841E0,4.689932466E-1,8.446663857E0
3.331119776E1,5.766702294E-1,1.012642574E1,9.544969559E0
3.333204127E1,2.761317253E0,5.247459888E0,6.400800705E0
3.335288477E1,7.465606928E-1,6.592226505E0,1.069113159E1
3.337375880E1,7.274180651E-1,4.737788677E0,7.357929707E0
3.339460230E1,1.320838094E0,7.369893551E0,7.156932354E0
3.341544581E1,1.562513232E0,5.156532764E0,9.604789734E0
3.343628931E1,1.909472466E0,4.828716278E0,1.144008541E1
3.345713282E1,4.713860750E-1,7.671389580E0,7.209574699E0
3.347797632E1,7.441678643E-1,9.183652878E0,3.479164124E0
3.349881983E1,1.964507341E0,1.015035343E1,4.936393261E0
3.351966334E1,1.421336651E0,6.484549522E0,9.308079720E0
3.354050684E1,8.829515576E-1,8.269595146E0,9.408578873E0
3.356135035E1,1.488335729E0,9.138189316E0,4.235296249E0
3.358222437E1,4.474578202E-1,9.083154678E0,3.902693748E0
3.360306788E1,4.594219327E-1,5.661418438E0,7.329215527E0
3.362391138E1,7.944171429E-1,8.310273170E0,1.183250809E1
3.364475489E1,1.349551916E0,1.042074299E1,4.118047714E0
3.366559840E1,1.251446247E0,8.640482903E0,1.837687731E0
3.368647242E1,1.679761529E0,4.910071850E0,5.599205017E0
3.370731592E1,2.569891453E0,5.536991596E0,1.604387665E1
3.372815943E1,1.674975902E-1,1.211007500E1,7.245467186E0
3.374900294E1,5.288137794E-1,9.159725189E0,3.543770313E0
3.376984644E1,-1.722832322E-1,6.075376511E0,3.644268990E0
3.379068995E1,1.414158225E0,6.640082836E0,9.248259544E0
3.381153345E1,9.140582681E-1,8.901300430E0,7.829315662E0
3.383240748E1,1.311266780E0,9.300901413E0,5.821737289E0
3.385322046E1,4.139583111E-1,7.415357590E0,5.429314613E0
3.387406397E1,6.819544435E-1,5.084748268E0,4.776073933E0
3.389490748E1,3.486342669E0,1.089930725E1,1.060259724E1
3.391578150E1,2.055434704E0,7.879564762E0,-1.627119422E0
3.393662501E1,1.744367719E0,1.859223247E0,3.019742250E0
3.395746851E1,-3.239881754E0,6.606583118E0,-2.823530734E-1
3.397831202E1,5.036891460E0,2.967100143E0,1.023410225E1
3.399915552E1,-1.868794441E0,1.197607708E1,-1.603191197E-1
3.401999903E1,1.406979680E0,8.279166222E-1,5.364708424E0
3.404084254E1,-1.074377418E0,1.060259724E1,3.438486099E0
3.406168604E1,2.421536446E0,2.646461725E0,3.663411379E0
3.408252955E1,1.294517040E0,9.109476089E0,2.297109842E0
3.410337305E1,3.964907169E0,-2.510071039E0,4.919643402E0
3.412421656E1,0.000000000E0,1.037767220E1,8.944371223E0
3.414506006E1,1.270588875E0,4.151547432E0,-5.745167255E0
3.416590357E1,1.375872970E0,8.293522835E0,4.912465096E0
3.418671656E1,2.490928411E0,8.901300430E-1,8.760123253E0
3.420759058E1,4.067798615E0,3.495913982E0,1.108116150E1
3.422843409E1,-1.938186288E0,1.038485050E1,-2.249253243E-1
3.424927759E1,1.325623751E0,1.098544884E1,-6.513263226E0
3.427012110E1,1.674975902E-1,-1.076770201E-1,3.548556089E0
3.429099512E1,1.371087432E0,6.848258495E0,7.412964344E0
3.431180811E1,3.948157430E-1,3.543770313E0,3.062812984E-1
3.433265162E1,7.417750359E-1,1.756571198E1,1.297627735E1
3.435349512E1,1.095912814E0,6.312266350E0,7.257431030E0
3.437433863E1,8.590233326E-1,7.862815380E0,1.089691448E1
3.439521265E1,2.199003935E0,8.097311974E0,1.165543938E1
3.441605616E1,1.710868239E0,4.977071285E0,1.017906761E1
3.443689967E1,2.244467735E0,1.073659515E1,1.181815147E1
3.445771265E1,2.782852650E0,8.461020470E0,9.346364975E0
3.447858668E1,1.490728498E0,7.645068169E0,8.489734650E0
3.449943018E1,2.433500528E0,5.661418438E0,1.082273674E1
3.452027369E1,7.752745152E-1,8.946763992E0,7.664210796E0
3.454111719E1,2.443071842E0,9.016156197E0,7.592426300E0
3.456196070E1,1.746760458E-1,6.848258495E0,5.142175674E0
3.458280421E1,3.158525944E0,6.802794933E0,4.965106964E0
3.460364771E1,1.112662554E0,5.718846321E0,3.227917671E0
3.462452174E1,-6.699903309E-2,9.765109062E0,5.584847927E0
3.464536524E1,-2.560320199E-1,5.905486107E0,3.768695593E0
3.466620875E1,1.244267747E-1,7.448856831E0,3.055634499E0
3.468705225E1,-3.493520916E-1,5.764309883E0,3.328416348E0
3.470792628E1,1.986042738E0,1.205264759E1,9.238688469E0
3.472876978E1,8.327022791E-1,6.235695839E0,9.906286001E-1
3.474964381E1,1.004985452E0,4.299902439E0,1.009771156E1
3.477045679E1,1.861616015E0,7.042077065E0,6.798008919E0
3.479130030E1,4.642075896E-1,-4.366901398E0,3.215953588E0
3.481214381E1,9.308080077E-1,1.575673676E1,2.751745939E0
3.483295679E1,-7.657032460E-2,3.345165968E0,3.873979807E0
3.485380030E1,1.538584948E0,1.054995537E1,4.486542225E0
3.487461329E1,2.766103029E0,1.088734269E0,5.446064472E0
3.489545679E1,1.208375454E0,9.387042999E0,1.112901783E1
3.491633082E1,1.598405480E0,2.091326952E0,7.673782349E0
3.493714381E1,1.596012712E0,1.190668583E1,3.622733593E0
3.495798731E1,1.339980721E0,4.943571568E0,1.655833244E0
3.497883082E1,-1.280160069E0,9.286544800E0,4.814359188E0
3.499967432E1,-1.028913707E-1,3.297309637E0,4.907679081E0
3.502048731E1,1.277767301E0,9.760323524E0,5.295316696E0
3.504133082E1,1.244267821E0,5.268995285E0,1.028913736E0
3.506217432E1,2.512463808E0,5.340780258E0,8.420342445E0
3.508301783E1,2.651247501E0,4.096512318E0,9.774680138E0
3.510386133E1,5.216353536E-1,9.877572060E0,4.007977962E0
3.512470484E1,9.236295223E-1,7.855636597E0,-1.368694544E0
3.514554835E1,6.364908218E-1,5.280959606E0,7.350750923E0
3.516639185E1,-1.292124242E-1,6.656832695E0,7.712067604E0
3.518726588E1,8.374879360E-1,8.056633949E0,9.363115311E0
3.520807886E1,2.423929453E0,9.327222824E0,6.125626087E0
3.522892237E1,7.680960894E-1,6.305087566E0,4.170690060E0
3.524976588E1,1.402194023E0,8.583054543E0,7.030112743E0
3.527060938E1,2.177468538E0,8.307880402E0,1.096869946E1
3.529148340E1,1.651047587E0,8.173882484E0,8.429914474E0
3.531229639E1,2.220539331E0,8.982656479E0,6.094519138E0
3.533313990E1,4.905286431E-1,6.680760860E0,3.278167009E0
3.535401392E1,2.134397745E0,6.953542709E0,1.154536915E1
3.537485743E1,8.350951076E-1,1.013838959E1,8.367700577E0
3.539567042E1,3.445664644E-1,3.993621111E0,2.419143677E0
3.541651392E1,-3.684946895E-1,9.523433685E0,9.327222824E0
3.543735743E1,3.773481369E0,8.133204460E0,1.075813103E1
3.545820093E1,-3.517449200E-1,1.143290615E1,8.997012973E-1
3.547901392E1,1.328016520E0,6.460621357E-1,8.063812256E-1
3.549985743E1,5.240281820E-1,3.354737282E0,4.967499733E0
3.552070093E1,-7.417750359E-1,9.047262192E0,3.840480328E0
3.554154444E1,-7.417750359E-2,1.029392338E1,5.876772404E0
3.556235743E1,7.944171429E-1,7.623532772E0,5.649454117E0
3.558320093E1,1.555334687E0,5.659025669E0,8.185846329E0
3.560401392E1,2.105683982E-1,7.920242786E0,7.178467751E0
3.562488795E1,-5.742774159E-2,7.948956966E0,9.001798630E0
3.564573145E1,2.727817893E-1,9.195617676E0,8.461020470E0
3.566660548E1,-1.402194023E0,8.853444099E0,-1.339980721E0
3.568744898E1,9.332008362E-1,6.580262184E-1,1.196411345E-2
3.570826197E1,4.264009953E0,6.752545357E0,6.525227547E0
3.572910548E1,7.202396393E-1,9.049654961E0,1.935793519E0
3.574994898E1,9.092725813E-2,2.782852650E0,2.782852650E0
3.577079249E1,2.921636343E0,5.015356064E0,6.618547440E0
3.579163599E1,-7.896314859E-1,1.073898792E1,9.279366493E0
3.581247950E1,1.060020447E0,5.948556900E0,5.448457241E0
3.583335352E1,1.237089276E0,1.044945621E1,1.557488251E1
3.585419703E1,2.533999205E0,6.486942291E0,1.470389557E1
3.587503715E1,2.196611166E0,6.862615108E0,7.731209755E0
3.589588066E1,7.944171429E-1,3.708875179E0,1.542652798E1
3.591672416E1,2.694318295E0,4.460221291E0,1.387119293E1
3.593753715E1,-1.962114573E-1,8.216953278E0,4.869394302E0
3.595841117E1,-8.805587292E-1,1.502453327E1,6.041877270E0
3.597925468E1,1.426122308E0,1.027238750E1,2.517249346E0
3.600009819E1,-6.963114142E-1,6.465406895E0,6.290730953E0
3.602094169E1,1.887937069E0,6.422336102E0,5.960521221E0
3.604175468E1,2.321037948E-1,6.305087566E0,-5.503492057E-2
3.606259819E1,-6.029912829E-1,7.697710514E0,2.409572363E0
3.608344169E1,-3.565305769E-1,7.109076023E0,4.855037212E0
3.610431572E1,7.010970116E-1,7.807780266E0,5.345565796E0
3.612515922E1,1.643869162E0,1.036570740E1,3.187239647E0
3.614600273E1,1.239482164E0,4.766502857E0,8.054241180E0
3.616684623E1,2.230110645E0,4.474578381E0,1.464646721E1
3.618772026E1,2.746960402E0,8.061419487E0,1.320598793E1
3.620856376E1,1.038485050E0,5.556134224E0,-2.069791555E0
3.622940727E1,2.199003935E0,6.642475605E0,4.677968502E0
3.625025077E1,1.019342422E0,8.595019341E0,7.860422611E0
3.627109428E1,1.610369682E0,4.965106964E0,9.013762474E0
3.629193778E1,2.718246460E0,6.599404812E0,1.004746246E1
3.631278129E1,1.378265858E0,5.699703693E0,5.714060307E0
3.633362480E1,1.768295884E0,7.032505512E0,4.072584152E0
3.635449882E1,-2.703889608E-1,7.975277901E0,1.203589797E0
3.637531181E1,1.323230863E0,7.783852100E0,6.606583118E0
3.639615532E1,1.423729420E0,6.513263226E0,6.946363926E0
3.641699882E1,6.939185858E-1,4.228117466E0,2.108076811E0
3.643784233E1,1.564906001E0,4.522434711E0,4.103690624E0
3.645868583E1,8.590233326E-1,8.822337151E0,8.154739380E0
3.647949882E1,-1.339980662E-1,8.161917686E0,1.019342422E0
3.650034233E1,8.781659007E-1,3.113062143E0,3.797409534E0
3.652118583E1,2.225325108E-1,9.308079720E0,6.776473522E0
3.654202934E1,3.194418192E0,6.477370739E0,1.519920921E1
3.656284233E1,1.225125194E0,1.324427319E1,5.603990555E0
3.658368583E1,3.237488985E0,-1.942971945E0,3.804588079E0
3.660452934E1,-2.967100143E-1,6.857829571E0,6.139982700E0
3.662537284E1,2.222932339E0,5.766702294E-1,-5.364708424E0
3.664621635E1,-1.110269666E0,8.671588898E0,4.089334011E0
3.666705986E1,9.858429432E-1,3.077169895E0,2.979064226E0
3.668787284E1,2.110469580E0,8.066205025E0,7.606783390E0
3.670871635E1,7.968099117E-1,3.579662561E0,-1.531406492E-1
3.672955986E1,1.170090318E0,-2.055434704E0,4.582255363E0
3.675037284E1,1.435693540E-2,6.350551128E0,2.098505497E0
3.677121635E1,7.561319470E-1,5.158925533E0,-4.800002098E0
3.679202934E1,-8.207381964E-1,6.817151546E0,4.749752998E0
3.681287284E1,1.670190215E0,6.283552170E0,1.033938694E1
3.683374687E1,2.847459018E-1,7.697710514E0,4.479363918E0
3.685455986E1,1.117448211E0,7.676175117E0,1.514656782E0
3.687540336E1,1.859223247E0,9.470791817E0,7.075576782E0
3.689624687E1,1.986042857E-1,5.486742496E0,7.307680130E0
3.691709037E1,1.722832322E0,8.214560509E0,6.960721016E0
3.693790336E1,3.637090325E-1,4.555934429E0,-6.125625968E-1
3.695874687E1,2.160718918E0,7.374679565E0,1.166022491E1
3.697962089E1,-1.363908947E-1,1.608694649E1,2.902493954E0
3.700046440E1,9.116654396E-1,1.770688742E-1,3.067598581E0
3.702130790E1,-1.131805062E0,8.317451477E0,2.565105915E0
3.704212089E1,1.287338614E0,5.742774606E-1,1.864008784E0
3.706296440E1,-7.058826685E-1,9.958928108E0,-8.733802438E-1
3.708380790E1,-2.991028428E-1,3.270988464E0,-1.418943882E0
3.710465141E1,-3.038884699E-1,1.136830044E1,1.630947876E1
3.712549491E1,6.053841114E-1,9.142974854E0,4.589433670E0
3.714633842E1,1.674975827E-2,2.790031195E0,4.323830605E0
3.716715141E1,8.877372146E-1,5.778666496E0,8.937192917E0
3.718799491E1,8.925228715E-1,1.001874828E1,7.853243828E0
3.720883842E1,1.507478207E-1,1.050449181E1,-3.646661758E0
3.722968193E1,-4.546363056E-1,3.421736479E0,3.747160196E0
3.725055595E1,9.762716293E-1,7.290930748E0,7.743174076E0
3.727139946E1,-5.335994363E-1,4.479363918E0,-1.548156261E0
3.729224296E1,1.237089276E0,9.793823242E0,6.005984545E-1
3.731308647E1,7.824530005E-1,5.094319344E0,8.331808090E0
3.733389946E1,1.244267821E0,9.607182503E0,9.336793900E0
3.735474296E1,2.067398787E0,4.651647091E0,1.109791183E1
3.737558647E1,2.270788670E0,1.087059307E1,6.317051888E0
3.739642997E1,1.098305583E0,2.778067112E0,5.077569485E0
3.741730400E1,3.474378586E0,1.279442310E1,1.793420601E1
3.743811698E1,2.548356056E0,8.245666504E0,1.194497108E1
3.745896049E1,1.823330879E0,1.954936147E0,1.103091240E0
3.747980400E1,-1.579262972E0,1.294277763E1,-6.508477330E-1
3.750064750E1,4.979464054E0,3.505485058E0,1.144726372E1
3.752146049E1,-9.930213690E-1,9.745966911E0,4.833501875E-1
3.754227348E1,2.761317253E0,2.883351326E0,1.897508383E0
3.756311698E1,-7.250252366E-1,5.848058701E0,9.571290612E-1
3.758396049E1,2.388036966E0,7.934599876E0,6.209374905E0
3.760480400E1,-1.131805062E0,8.291130066E0,-3.876372576E0
3.762564750E1,7.202396393E-1,8.087740898E0,3.098705292E0
3.764649101E1,-8.015955687E-1,6.733402729E0,4.479363918E0
3.766733451E1,1.280160069E0,1.251924801E1,2.699103832E0
3.768817802E1,1.792224169E0,3.845266104E0,2.940778971E0
3.770902153E1,2.416750908E0,7.006184578E0,1.548874092E1
3.772986503E1,1.416550994E0,6.209374905E0,8.621339798E0
3.775070854E1,1.990828395E0,9.561718941E0,7.654639721E0
3.777155204E1,9.834501147E-1,8.788837433E0,6.905686378E0
3.779242607E1,1.622333765E0,4.587040901E0,8.915657043E0
3.781326957E1,1.275374413E0,7.288537979E0,8.286344528E0
3.783411308E1,2.280359983E0,4.417150497E0,8.568697929E0
3.785495658E1,2.627319336E0,8.884550095E0,6.496513367E0
3.787580009E1,8.039883971E-1,7.003791809E0,1.131805062E0
3.789664360E1,-3.732803464E-1,7.611568928E0,2.883351326E0
3.791748710E1,6.723831892E-1,4.098905087E0,4.663611412E0
3.793833061E1,-8.135596663E-2,4.295116425E0,7.860422611E0
3.795917411E1,1.998006940E0,4.673182487E0,7.365108013E0
3.798001762E1,1.603191197E-1,7.652246952E0,2.727817893E-1
3.800089164E1,-3.708875179E-1,5.623133183E0,1.543370605E0
3.802173515E1,-5.024927258E-1,1.139940739E1,1.321795273E1
3.804257866E1,2.780459881E0,9.597611427E0,1.173440266E1
3.806342216E1,5.527420044E-1,6.489335060E0,1.636690736E0
3.808429618E1,2.084148407E0,4.290330887E0,6.302694798E0
3.810513969E1,1.909472466E0,6.101697922E0,1.224646664E1
3.812598320E1,2.177468538E-1,1.054277611E1,5.204389095E0
3.814685722E1,1.880758643E0,6.034698486E0,4.484149456E0
3.816770072E1,1.316052526E-1,7.750352383E0,9.832108498E0
3.818854423E1,2.663211584E0,9.992427826E0,7.920242786E0
3.820938774E1,1.715653777E0,9.418149948E0,2.495713949E0
3.823023124E1,2.074577332E0,5.592026711E0,7.810173035E0
3.825110527E1,1.603191137E0,6.702296257E0,1.146879864E1
3.827194877E1,9.140582681E-1,8.437092781E0,5.326423168E0
3.829276176E1,5.120640397E-1,9.320044518E0,2.885744095E0
3.831360527E1,2.297109663E-1,5.828916073E0,7.262216568E0
3.833447929E1,7.848458290E-1,5.862415314E0,7.367500782E0
3.835532280E1,1.722832322E0,7.377072334E0,7.704888821E0
3.837616630E1,1.062413216E0,8.767302513E0,8.422736168E0
3.839697929E1,4.546363056E-1,6.778866768E0,3.048455954E0
3.841782280E1,1.476371527E0,8.338987350E0,5.180460930E0
3.843863578E1,1.596012712E0,9.059226990E0,9.269794464E0
3.845950981E1,2.263610125E0,8.468199730E0,2.287538528E0
3.848035331E1,1.002592683E0,6.652047157E0,2.749353170E0
3.850119682E1,3.448057413E0,8.236095428E0,1.209571838E1
3.852204032E1,1.914258115E-2,7.587640762E0,2.627319336E0
3.854288383E1,2.127219439E0,5.472385406E0,3.998406649E0
3.856372734E1,-4.307080805E-2,9.554540634E0,6.525227547E0
3.858454032E1,-1.150947690E0,7.176074982E0,2.868994236E0
3.860538383E1,2.254039049E0,7.345965385E0,4.350151539E0
3.862622734E1,8.518448472E-1,8.566305161E0,1.199282742E1
3.864707084E1,4.259224236E-1,6.759724140E0,4.575077057E0
3.866791435E1,1.031306505E0,6.393621922E0,2.450250387E0
3.868872734E1,1.473978758E0,9.087940216E0,9.856036186E0
3.870960136E1,1.036092162E0,8.382058144E0,2.553141832E0
3.873041435E1,9.451649189E-1,2.914458036E0,3.110669553E-1
3.875125785E1,2.921636343E0,7.104290485E0,1.430190086E1
3.877207084E1,5.264210105E-1,8.161917686E0,8.207381248E0
3.879291435E1,1.414158225E0,6.046662807E0,3.675375462E0
3.881375785E1,3.613162339E-1,4.697110653E0,3.802195072E0
3.883460136E1,1.825723648E0,8.561519623E0,1.395254898E1
3.885544487E1,7.465606928E-1,9.547362328E0,-1.091127157E0
3.887625785E1,9.906286001E-1,1.318445325E0,5.934200287E-1
3.889710136E1,8.087740541E-1,1.246899891E1,1.568016720E1
3.891794487E1,1.885544300E0,8.939585686E0,9.018548965E0
3.893875785E1,4.929214716E-1,8.989834785E0,3.043670416E0
3.895960136E1,1.304088354E0,8.647661209E0,6.137589931E0
3.898044487E1,7.561319470E-1,6.606583118E0,4.864608288E0
3.900131889E1,1.584048629E0,9.044869423E0,9.853643417E0
3.902216240E1,4.881358147E-1,5.790630817E0,7.379465103E0
3.904300590E1,4.977070987E-1,8.841479301E0,3.737588882E0
3.906384941E1,1.737189293E0,1.005464077E1,7.671389580E0
3.908469291E1,1.117448211E0,7.884350777E0,2.739781857E0
3.910553642E1,8.733802438E-1,5.448457241E0,1.150947690E0
3.912637992E1,-7.465606928E-1,7.113861561E0,8.930013657E0
3.914722343E1,1.840080619E0,1.051645565E1,1.053081226E1
3.916806694E1,1.339980721E0,8.398807526E0,-3.828516304E-1
3.918894096E1,5.575276613E-1,-3.756731451E-1,4.213760853E0
3.920978447E1,-5.312066078E-1,5.558526993E0,5.010570526E0
3.923059745E1,2.411965132E0,1.322513103E1,2.694318295E0
3.925147148E1,3.684946895E-1,1.234696484E1,8.118846893E0
3.927231498E1,1.316052526E-1,1.064566803E1,9.477970123E0
3.929312797E1,4.359723091E0,6.699903309E-2,1.489292812E1
3.931400199E1,-5.024927482E-2,1.456032562E1,1.734317780E1
3.933481498E1,1.895115495E0,6.029912949E0,2.098505497E0
3.935565849E1,-1.696511269E0,1.177508068E1,2.208575249E0
3.937650199E1,1.756331801E0,4.917250633E0,8.953942299E0
3.939734550E1,5.048855543E-1,7.738388538E0,2.536391973E0
3.941818901E1,1.770688742E-1,-3.560520172E0,-1.648654819E0
3.943903251E1,2.270788670E0,1.312223911E1,1.828116536E0
3.945990654E1,-1.607976794E0,6.845865726E0,-1.366301775E0
3.948075004E1,1.698904037E-1,7.800601959E0,8.535198212E0
3.950156303E1,3.689732552E0,7.673782349E0,7.661818027E0
3.952243705E1,-7.298108935E-1,7.862815380E0,1.098066330E1
3.954325004E1,2.464607239E0,6.692724705E0,2.847459018E-1
3.956409355E1,2.615355253E0,7.178467698E-3,7.666603565E0
3.958496757E1,1.320838094E0,9.767501831E0,1.317488194E1
3.960581108E1,1.280160069E0,-1.627119422E0,3.495913982E0
3.962665458E1,-6.747759581E-1,1.290209961E1,6.537191391E0
3.964752861E1,1.390229940E0,3.096312523E0,5.699703693E0
3.966834159E1,3.017349243E0,1.061934662E1,1.044467068E1
3.968918510E1,3.409772158E0,3.278166950E-1,1.265803218E0
3.970999809E1,2.419143677E0,5.484349728E0,7.240681171E0
3.973084159E1,1.194018483E0,4.857429981E0,8.274380684E0
3.975168510E1,1.363908947E-1,8.693124771E0,5.060820103E0
3.977252861E1,6.699903607E-1,8.492127419E0,5.790630817E0
3.979337211E1,2.536391973E0,9.164510727E0,9.700503349E0
3.981418510E1,1.648654819E0,9.494720459E0,1.262931824E1
3.983502861E1,2.266003132E0,9.059226990E0,1.297149181E1
3.985587211E1,-2.703889608E-1,3.960121393E0,5.173282623E0
3.987668510E1,4.395615101E0,5.412564754E0,1.077009487E1
3.989752861E1,-1.517049551E0,1.233739376E1,3.701696634E0
3.991837211E1,1.983649969E0,2.431107759E0,-1.820937991E0
3.993921562E1,-1.521835208E0,4.560719967E0,-4.043870270E-1
3.996005912E1,1.256231904E0,3.900300980E0,1.197846985E1
3.998090263E1,1.038485050E0,1.008814049E1,4.548755646E0
4.000171562E1,1.440479279E0,6.711867332E0,1.624726534E0
4.002255912E1,-5.264210105E-1,1.509153271E1,1.439522076E1
4.004340263E1,2.443071842E0,6.757331371E0,1.444786358E1
4.006424614E1,1.131805062E0,6.989434719E0,6.022734642E0
4.008508964E1,4.522434771E-1,6.896114826E0,2.988635540E0
4.010593315E1,2.440679073E-1,7.250252724E0,4.185046673E0
4.012677665E1,1.871187329E0,8.078168869E0,6.008377552E0
4.014765068E1,1.789831281E0,6.233303070E0,5.240281582E0
4.016849418E1,5.790630579E-1,-3.661018610E0,6.245266914E0
4.018933769E1,9.332008362E-1,8.315058708E0,-3.589234129E-2
4.021018119E1,1.375872970E0,4.268795490E0,1.627119422E0
4.023102470E1,3.565305769E-1,9.387042999E0,5.929414749E0
4.025186820E1,2.880958557E0,9.643075466E-1,8.432307243E0
4.027271171E1,2.967100143E0,1.185165024E1,1.154297638E1
4.029355522E1,1.548156261E0,-2.361716032E0,4.302295208E0
4.031439872E1,1.890329838E0,6.848258495E0,2.288017082E1
4.033524223E1,6.771687865E-1,1.128215885E1,1.075573826E1
4.035608574E1,1.789831281E0,6.580262184E0,1.808973908E0
4.037692924E1,-1.978864312E0,1.452682590E1,1.447657681E1
4.039777275E1,3.371487141E0,4.543970108E0,1.576870155E1
4.041861625E1,-3.900300860E-1,1.164347458E1,1.038245773E1
4.043949028E1,1.696511269E0,5.639883041E0,-3.230310678E-1
4.046030326E1,-1.196411345E-2,7.039684296E0,7.666603565E0
4.048114677E1,1.284945726E0,6.293123722E0,1.071027374E1
4.050202079E1,5.288137794E-1,1.093519974E1,6.632904530E0
4.052286430E1,-2.775674164E-1,5.589633465E0,4.101297855E0
4.054370781E1,2.009970993E-1,1.501496220E1,2.327977180E1
4.056455131E1,2.411965132E0,6.479763508E0,1.351226902E1
4.058539482E1,6.364908218E-1,5.053641319E0,5.412564754E0
4.060623832E1,-1.347159147E0,1.064327526E1,6.862615108E0
4.062708183E1,4.254438877E0,1.849651933E0,2.001596069E1
4.064792533E1,2.512463629E-1,1.804666901E1,5.015356064E0
4.066876884E1,4.917250633E0,4.881358147E-1,6.168696880E0
4.068964286E1,-2.727817774E0,8.023134232E0,-5.898307800E0
4.071048637E1,2.476571321E0,-2.773281336E0,-1.100698411E-1
4.073132988E1,-4.091726840E-1,1.082752228E1,-9.329615593E0
4.075217338E1,4.235295951E-1,-1.600798368E0,9.817750931E0
4.077304740E1,1.813759565E0,1.497906923E0,8.365307808E0
4.079389091E1,2.727817893E-1,1.076770186E0,7.944171429E-1
4.081473442E1,-5.024927482E-2,4.644468784E0,-1.543370605E0
4.083557792E1,1.124626622E-1,8.614161491E0,3.503092289E0
4.085642143E1,-1.050449133E0,1.219861031E1,4.878965378E0
4.087726493E1,1.816152334E0,6.680760860E0,2.967100143E0
4.089810844E1,2.804388046E0,-4.668396950E0,7.173682213E0
4.091895195E1,-1.222732425E0,5.252245903E0,3.160918713E0
4.093982597E1,2.641676188E0,6.788437843E0,2.428714991E0
4.096066948E1,-1.222732425E0,9.219545364E0,-4.677968502E0
4.098151298E1,-1.292124242E-1,4.857429862E-1,-3.974478483E0
4.100238700E1,4.465006828E0,3.562912941E0,1.805863190E1
4.102323051E1,2.218146563E0,1.007617569E1,6.472585201E0
4.104407402E1,3.081955671E0,8.757730722E-1,5.996413708E0
4.106491752E1,-4.359723091E0,1.102851963E1,-6.809973240E0
4.108576103E1,5.503492057E-2,-6.876972198E0,7.688138962E0
4.110660453E1,1.014556766E0,1.712782478E1,4.118047714E0
4.112744804E1,-4.307080805E-1,-2.577069998E0,-4.431507587E0
4.114829154E1,1.459621787E0,7.135396957E0,8.992227554E0
4.116916557E1,3.818944931E0,1.123908806E1,4.110869408E0
4.118997856E1,-1.339980662E-1,5.759523869E0,-2.919243574E0
4.121082206E1,-4.450650215E-1,5.922235966E0,1.718046570E1
4.123166557E1,3.940979004E0,9.884750366E0,2.476571465E1
4.125250907E1,-3.603590965E0,1.843430519E1,1.286859989E1
4.127335258E1,2.134397745E0,-2.239681959E0,1.006660461E1
4.129422660E1,-8.207381964E-1,9.925428391E0,4.596612453E0
4.131507011E1,1.426122308E0,3.081955671E0,-7.039684296E0
4.133588310E1,2.682354212E0,1.698904037E-1,-3.680161238E0
4.135672660E1,-1.440479279E0,3.311666489E0,1.056670475E1
4.137757011E1,2.321037948E-1,6.293123722E0,1.488096428E1
4.139841362E1,1.385444283E0,1.043988514E1,7.082755089E0
4.141925712E1,2.598605394E0,1.974078655E0,5.539384365E0
4.144010063E1,1.237089276E0,7.496713161E0,7.207181931E0
4.146094413E1,2.600998163E0,6.128018856E0,1.287577820E1
4.148181816E1,4.536791801E0,1.164826107E1,7.905886173E0
4.150266166E1,-5.048855543E-1,3.203989506E0,-1.339980662E-1
4.152347465E1,2.797209740E0,1.378026581E1,2.385883522E1
4.154434867E1,2.775674343E0,6.384050846E0,1.906361771E1
4.156519218E1,1.000199914E0,1.009771156E1,9.138189316E0
4.158600517E1,1.998006940E0,6.025127411E0,2.251646042E0
4.160687919E1,-1.368694544E0,7.365108013E0,4.335794449E0
4.162769218E1,-1.663011789E0,8.408378601E0,2.009970993E-1
4.164853569E1,2.182254314E0,6.424728870E0,6.307480335E0
4.166937919E1,2.163111687E0,8.757730484E0,6.058627129E0
4.169025322E1,5.527420044E-1,2.498106956E0,-1.016949654E0
4.171109672E1,-1.753939033E0,1.421575928E1,7.221538544E0
4.173194023E1,2.947957516E0,5.666203976E0,1.037527943E1
4.175278373E1,-2.392822644E-3,9.346364975E0,6.817151546E0
4.177362724E1,1.651047617E-1,3.933800459E0,-2.663211584E0
4.179447074E1,2.057827473E0,8.683553696E0,8.731410027E0
4.181531425E1,8.350951076E-1,1.178225899E1,9.700503349E0
4.183615776E1,1.473978758E0,4.876572609E0,7.489534855E0
4.185700126E1,-2.679961324E-1,6.211767673E0,5.060820103E0
4.187784477E1,3.421736360E-1,5.000999451E0,3.814159393E0
4.189865776E1,1.162911773E0,1.124626637E1,9.913464546E0
4.191950126E1,2.175075769E0,5.603990555E0,2.794816732E0
4.194034477E1,1.129412293E0,1.210768223E0,3.531806231E0
4.196115776E1,1.390229940E0,6.496513367E0,7.389036179E0
4.198200126E1,2.364108801E0,8.872586250E0,1.015753174E1
4.200284477E1,3.684946895E-1,7.527820110E0,2.919243574E0
4.202365776E1,1.155733347E0,9.765109062E0,8.116454124E0
4.204450126E1,6.604190469E-1,4.448257446E0,2.038684845E0
4.206534477E1,-2.153540403E-1,5.915057659E0,4.804787636E0
4.208618827E1,3.929014683E0,3.629911900E0,4.110869408E0
4.210706230E1,1.299302697E0,7.707281590E0,4.642076015E0
4.212787528E1,3.014956415E-1,6.649653912E0,6.032305717E0
4.214871879E1,2.746960402E0,8.851051331E0,9.162117958E0
4.216956230E1,3.804588020E-1,6.223731518E0,3.048455954E0
4.219040580E1,3.448057413E0,8.173882484E0,1.084905815E1
4.221127983E1,-9.810572863E-2,9.724431038E0,6.063412666E0
4.223212333E1,9.810572863E-1,8.740981102E0,3.663411379E0
4.225296684E1,1.440479279E0,6.941578388E0,8.307880402E0
4.227381034E1,3.574877024E0,7.482356548E0,1.659901047E1
4.229465385E1,1.852044702E0,6.640082836E0,9.061619759E0
4.231552787E1,-3.349951655E-2,8.281558990E0,-9.092725813E-2
4.233637138E1,2.076970100E0,7.312466145E0,5.386243820E0
4.235721489E1,3.687339783E0,1.126062298E1,1.239482117E1
4.237805839E1,2.036292076E0,6.262016773E0,5.412564754E0
4.239890190E1,2.266003132E0,3.905086517E0,6.881757736E0
4.241974540E1,1.445264935E0,2.778067112E0,1.078205872E1
4.244058891E1,2.603390932E0,1.079402256E1,7.444071293E0
4.246140190E1,1.033699393E0,5.283352375E0,3.909872293E0
4.248224540E1,2.589034081E0,9.877572060E0,7.276573658E0
4.250305839E1,3.340380430E0,4.663611412E0,1.207657623E1
4.252390190E1,-1.172483116E-1,9.695717812E0,5.702096462E0
4.254474540E1,1.598405480E0,3.005385160E0,2.667997360E0
4.256558891E1,-9.954141974E-1,1.260538960E1,8.903693199E0
4.258640190E1,1.806581140E0,5.759523869E0,1.012403297E1
4.260724540E1,1.942971945E0,1.018385315E1,1.006421185E1
4.262808891E1,1.426122308E0,9.741181374E0,7.819744587E0
4.264890190E1,1.466800332E0,5.783452511E0,9.597611427E0
4.266974540E1,1.356730461E0,9.860821724E0,1.024845982E1
4.269061943E1,2.959921598E0,5.266602516E0,5.757131100E0
4.271143241E1,1.911865234E0,6.434299946E0,1.234457207E1
4.273227592E1,8.159525394E-1,7.700103283E0,2.313859463E0
4.275311943E1,3.299702406E0,3.637090325E-1,7.853243828E0
4.277393241E1,1.124626622E-1,3.505485058E0,2.249253273E0
4.279477592E1,1.923829436E0,-1.268195957E-1,3.558127165E0
4.281561943E1,-8.374879509E-2,7.412964344E0,-2.067398787E0
4.283646293E1,1.301695466E0,8.724231720E0,3.842873096E0
4.285730644E1,5.670989752E-1,7.932207108E0,2.344966233E-1
4.287814994E1,3.182454109E0,3.536591768E0,5.285745144E0
4.289896293E1,5.000999570E-1,9.207581520E0,1.183011532E1
4.291980644E1,9.427721500E-1,6.364908218E0,8.324629784E0
4.294064994E1,4.546363056E-1,6.080162525E0,-3.517449200E-1
4.296152397E1,3.163311481E0,6.625725746E0,1.298584843E1
4.298236747E1,-1.610369682E0,1.112901783E1,7.255038261E0
4.300318046E1,1.251446247E0,-2.605783939E0,3.199203968E0
4.302405448E1,1.383051515E0,1.257188988E1,5.139782906E0
4.304489799E1,1.196411371E0,3.108276606E0,2.002792597E0
4.306574150E1,1.397408366E0,1.054995537E1,6.199803352E0
4.308658500E1,2.122433662E0,6.908079147E0,1.129890823E1
4.310742851E1,1.722832322E-1,8.018348694E0,7.996813297E0
4.312827201E1,-8.374879509E-2,6.824330330E0,6.388836503E-1
4.314911552E1,1.674975902E-1,5.477170944E0,5.048855782E0
4.316992851E1,2.270788670E0,9.119047165E0,9.470791817E0
4.319077201E1,2.440679073E-1,4.625326157E0,-9.332008660E-2
4.321161552E1,1.091127157E0,8.013563156E0,4.687539577E0
4.323245903E1,3.349951804E-1,6.120840549E0,6.386443615E0
4.325330253E1,1.450050473E0,7.980063438E0,3.730410576E0
4.327417656E1,1.086341500E0,6.568298340E0,9.784252167E0
4.329498954E1,-3.541377485E-1,8.513663292E0,5.402993679E0
4.331583305E1,1.292124242E-1,7.228717327E0,1.864008784E0
4.333667656E1,6.029912829E-1,3.089133978E0,6.910471916E0
4.335752006E1,2.306680918E0,6.628118515E0,1.219621658E1
4.337836357E1,1.770688742E-1,5.838487148E0,1.797009826E0
4.339923759E1,-4.067798331E-2,8.422736168E0,1.158126116E0
4.342008110E1,2.871387303E-1,8.472985268E0,8.264809608E0
4.344092460E1,1.624726534E0,6.824330330E0,1.255035496E1
4.346176811E1,1.201196909E0,5.903093338E0,4.993820667E0
4.348261161E1,2.299502611E0,3.584448338E0,1.006899738E1
4.350345512E1,3.158525944E0,9.334401131E0,9.059226990E0
4.352432914E1,-2.799602449E-1,5.221138954E0,5.869594097E0
4.354514213E1,3.263810158E0,5.570491314E0,5.405386448E0
4.356601616E1,8.949156404E-1,5.036891460E0,1.179422283E1
4.358685966E1,7.776673436E-1,7.180860519E0,7.716853142E0
4.360770317E1,2.445464849E0,1.428515077E0,3.728017569E0
4.362854667E1,-6.556333899E-1,1.304806232E1,9.511469841E0
4.364939018E1,2.543570518E0,2.337787628E0,-2.512463629E-1
4.367026420E1,3.795016766E0,9.200403214E0,1.136351490E1
4.369110771E1,4.235295951E-1,5.572884083E0,3.460021496E0
4.371195121E1,7.178468108E-1,2.636890650E0,-1.409372568E0
4.373279472E1,2.038684845E0,4.484149456E0,5.364708424E0
4.375363822E1,-3.708875179E-1,6.798008919E0,4.022335052E0
4.377451225E1,7.226324677E-1,9.547362328E0,6.197410822E-1
4.379535575E1,8.374879509E-2,6.139982700E0,9.355937004E0
4.381619926E1,9.906286001E-1,1.144726372E1,8.341380119E0
4.383704277E1,-2.368894368E-1,2.892922640E0,-5.623133183E-1
4.385788627E1,9.332008362E-1,1.080359459E1,8.291130066E0
4.387872978E1,1.588834286E0,6.912864685E0,8.353343964E0
4.389960380E1,2.847459018E-1,1.173679543E1,5.032105923E0
4.392044731E1,2.739781857E0,5.115854740E0,1.098066330E1
4.394129081E1,2.727817774E0,6.230910301E0,1.102373409E1
4.396213432E1,2.120040894E0,3.524627686E0,7.960920811E0
4.398300834E1,2.452643156E0,1.018624592E1,1.022692394E1
4.400385185E1,6.245267391E-1,8.623732567E0,7.956135273E0
4.402469535E1,1.215553880E0,6.721438885E0,4.823930264E0
4.404556938E1,1.201196909E0,-6.412764788E-1,1.130608654E1
4.406641288E1,6.087340832E0,6.178267956E0,1.623051643E1
